Terminal: BAA      765  ITABERA
Tensão base: 765 kV
SOC inicial: 1643124120
SOC final: 1643124179
Taxa: 1 fasores/s
Total de frames faltantes: - 

Tempo_(SOC)           VB_mod_(V)     VB_ang_(graus)     Frequência        Delta_Freq     Faltante
1643124120.0000    457306.600000       133.535800        59.975150         0.202468
1643124121.0000    457205.800000       124.470500        59.973620        -0.120905
1643124122.0000    456897.200000       114.996900        59.970050        -0.315347
1643124123.0000    457405.800000       105.043400        59.972160        -0.041569
1643124124.0000    457398.200000        94.843380        59.971920         0.036198
1643124125.0000    457367.900000        84.129200        59.970370        -0.016798
1643124126.0000    457223.900000        72.915740        59.969150         0.112971
1643124127.0000    457346.400000        61.332260        59.966240        -0.091713
1643124128.0000    457216.400000        50.132710        59.967180        -0.472546
1643124129.0000    457365.600000        38.614470        59.969560         0.165886
1643124130.0000    457564.400000        27.291780        59.971680         0.032985
1643124131.0000    456985.000000        15.666410        59.964280        -0.235004
1643124132.0000    457015.800000         3.353758        59.963990        -0.019024
1643124133.0000    457175.600000        -9.553159        59.963670        -0.029415
1643124134.0000    457028.100000       -23.116200        59.959430        -0.089879
1643124135.0000    457264.000000       -37.393970        59.959590         0.068596
1643124136.0000    457300.200000       -51.839420        59.960800        -0.187332
1643124137.0000    457227.100000       -65.902400        59.960570        -0.044916
1643124138.0000    457509.000000       -79.339410        59.965050        -0.053805
1643124139.0000    457268.700000       -92.092360        59.968910         0.295677
1643124140.0000    457288.600000      -104.675200        59.968120         0.111252
1643124141.0000    457233.300000      -116.715800        59.966590         0.158749
1643124142.0000    457271.500000      -128.459100        59.967560        -0.037050
1643124143.0000    457476.500000      -139.619500        59.969860        -0.059512
1643124144.0000    457371.600000      -150.134800        59.971390         0.080204
1643124145.0000    457149.600000      -160.265800        59.971890         0.110668
1643124146.0000    456921.900000      -169.930300        59.972420         0.228760
1643124147.0000    457301.700000      -179.482100        59.972020        -0.143370
1643124148.0000    457112.600000       171.091200        59.977040         0.213446
1643124149.0000    457216.700000       162.062500        59.975560         0.274916
1643124150.0000    457412.400000       153.564800        59.978200         0.129605
1643124151.0000    457473.300000       146.047400        59.981750        -0.009495
1643124152.0000    457594.200000       139.065500        59.981270        -0.088694
1643124153.0000    457297.100000       132.637800        59.983040         0.058421
1643124154.0000    457355.200000       126.768700        59.980830        -0.083049
1643124155.0000    457385.900000       121.711400        59.986820        -0.155748
1643124156.0000    457513.800000       117.536500        59.985850        -0.219468
1643124157.0000    457504.700000       113.607600        59.990820         0.276727
1643124158.0000    457472.100000       110.203200        59.990500        -0.226165
1643124159.0000    457511.300000       107.806600        59.995350         0.017847
1643124160.0000    457583.000000       106.020100        59.996120         0.008689
1643124161.0000    457325.400000       105.091200        59.997370        -0.078072
1643124162.0000    457361.700000       104.538200        59.999440         0.023908
1643124163.0000    456986.300000       104.420500        60.000530         0.125692
1643124164.0000    457281.300000       104.426600        59.999710        -0.036594
1643124165.0000    457246.300000       104.427800        59.999910        -0.006746
1643124166.0000    456994.700000       104.040400        59.998400         0.147479
1643124167.0000    457155.600000       103.040300        59.998540         0.164174
1643124168.0000    457390.500000       101.885400        59.994540        -0.044531
1643124169.0000    457248.300000        99.951830        59.993800         0.062719
1643124170.0000    457063.000000        97.413700        59.990280         0.021515
1643124171.0000    457057.100000        94.185830        59.990520        -0.015875
1643124172.0000    457106.000000        90.254190        59.987920         0.054871
1643124173.0000    457035.700000        85.490320        59.983960        -0.068428
1643124174.0000    456834.800000        79.563220        59.980100        -0.012253
1643124175.0000    456961.000000        72.966330        59.981430        -0.006236
1643124176.0000    456886.300000        65.499370        59.978540        -0.421936
1643124177.0000    457199.900000        57.716280        59.978550         0.147517
1643124178.0000    456907.600000        49.728570        59.979290         0.242560
1643124179.0000    457032.300000        40.950610        59.974220        -0.002649
