Terminal: BAA      765  TIJUCO PRETO
Tensão base: 765 kV
SOC inicial: 1643124120
SOC final: 1643124179
Taxa: 1 fasores/s
Total de frames faltantes: - 

Tempo_(SOC)           VB_mod_(V)     VB_ang_(graus)     Frequência        Delta_Freq     Faltante
1643124120.0000    430168.100000       132.076700        59.974780         0.099585
1643124121.0000    430020.000000       123.016200        59.973310        -0.131385
1643124122.0000    429723.600000       113.524000        59.969300        -0.425298
1643124123.0000    430336.500000       103.574400        59.972300        -0.087903
1643124124.0000    430325.000000        93.370180        59.972740         0.175059
1643124125.0000    430319.100000        82.663240        59.971180        -0.025479
1643124126.0000    430104.600000        71.450600        59.968590         0.134467
1643124127.0000    430280.000000        59.875330        59.966240         0.001007
1643124128.0000    430057.300000        48.668830        59.966940        -0.548704
1643124129.0000    430293.400000        37.164790        59.968840         0.032943
1643124130.0000    430454.700000        25.835190        59.973010         0.047924
1643124131.0000    429838.200000        14.200220        59.963990        -0.325133
1643124132.0000    429883.300000         1.882281        59.963640         0.011439
1643124133.0000    430067.400000       -11.009720        59.964830         0.117474
1643124134.0000    429932.400000       -24.580820        59.957780        -0.223436
1643124135.0000    430190.400000       -38.852970        59.960190         0.046648
1643124136.0000    430209.300000       -53.292500        59.961140        -0.252403
1643124137.0000    430042.400000       -67.354800        59.960490         0.009260
1643124138.0000    430350.800000       -80.789610        59.964550        -0.174067
1643124139.0000    430094.600000       -93.550250        59.969360         0.198556
1643124140.0000    430118.300000      -106.131400        59.967690         0.120714
1643124141.0000    430058.000000      -118.173800        59.966360         0.173471
1643124142.0000    430142.900000      -129.914900        59.967830         0.080039
1643124143.0000    430302.100000      -141.071700        59.970400        -0.005861
1643124144.0000    430205.200000      -151.597300        59.971200         0.076741
1643124145.0000    429944.100000      -161.720800        59.972950         0.166935
1643124146.0000    429665.000000      -171.396800        59.971470         0.151611
1643124147.0000    430159.100000       179.058000        59.972310        -0.108946
1643124148.0000    429919.800000       169.616300        59.976640         0.151451
1643124149.0000    430024.100000       160.592500        59.975410         0.316584
1643124150.0000    430239.300000       152.112300        59.977830         0.034585
1643124151.0000    430299.300000       144.591000        59.982780         0.041555
1643124152.0000    430446.900000       137.606600        59.982250        -0.086543
1643124153.0000    430069.900000       131.169700        59.982230        -0.017735
1643124154.0000    430173.800000       125.293500        59.980660        -0.103471
1643124155.0000    430155.000000       120.247100        59.986100        -0.219839
1643124156.0000    430305.000000       116.048600        59.985880        -0.070699
1643124157.0000    430342.700000       112.130500        59.991070         0.220525
1643124158.0000    430272.700000       108.732400        59.990070        -0.163882
1643124159.0000    430338.800000       106.331300        59.995670         0.048744
1643124160.0000    430380.500000       104.551800        59.996720        -0.035521
1643124161.0000    430087.600000       103.607300        59.998060        -0.052209
1643124162.0000    430179.300000       103.063300        59.999150        -0.125449
1643124163.0000    429733.900000       102.927600        60.000410         0.163614
1643124164.0000    430085.300000       102.939300        60.000790         0.137629
1643124165.0000    430036.500000       102.933200        60.000240         0.090422
1643124166.0000    429801.800000       102.561000        59.998090         0.071387
1643124167.0000    429963.000000       101.568200        59.998670         0.042866
1643124168.0000    430282.500000       100.402600        59.995670         0.044501
1643124169.0000    430142.900000        98.474690        59.995430         0.206728
1643124170.0000    429878.100000        95.928830        59.990210        -0.007060
1643124171.0000    429857.000000        92.702230        59.991130         0.126563
1643124172.0000    429976.000000        88.774920        59.988610        -0.041312
1643124173.0000    429862.600000        84.002390        59.984030         0.013908
1643124174.0000    429663.800000        78.078230        59.979790         0.094157
1643124175.0000    429784.500000        71.489240        59.980920        -0.068505
1643124176.0000    429678.900000        64.026830        59.977980        -0.552634
1643124177.0000    430047.100000        56.237410        59.978410         0.259788
1643124178.0000    429705.700000        48.249810        59.980430         0.414836
1643124179.0000    429870.300000        39.481690        59.975520         0.096121
