Terminal: BAB      765  ITABERA
Tensão base: 765 kV
SOC inicial: 1643124120
SOC final: 1643124179
Taxa: 1 fasores/s
Total de frames faltantes: - 

Tempo_(SOC)           VB_mod_(V)     VB_ang_(graus)     Frequência        Delta_Freq     Faltante
1643124120.0000    457783.100000       133.523000        59.974120         0.047625
1643124121.0000    457681.800000       124.458400        59.975090        -0.017339
1643124122.0000    457385.000000       114.985400        59.970810        -0.287674
1643124123.0000    457896.000000       105.032100        59.971640        -0.200137
1643124124.0000    457884.900000        94.828140        59.971600         0.075900
1643124125.0000    457850.400000        84.114520        59.970900         0.108046
1643124126.0000    457705.000000        72.902780        59.969240         0.094551
1643124127.0000    457825.900000        61.318660        59.965930        -0.102632
1643124128.0000    457697.800000        50.120040        59.967100        -0.486910
1643124129.0000    457848.300000        38.603380        59.969530         0.071733
1643124130.0000    458054.500000        27.278890        59.972950         0.147573
1643124131.0000    457465.300000        15.655880        59.964870        -0.291338
1643124132.0000    457489.900000         3.340510        59.963180        -0.108016
1643124133.0000    457657.700000        -9.567595        59.963940         0.015047
1643124134.0000    457520.000000       -23.129380        59.959440        -0.089076
1643124135.0000    457757.500000       -37.404780        59.959990         0.036586
1643124136.0000    457782.500000       -51.853580        59.960650        -0.176966
1643124137.0000    457702.000000       -65.917280        59.960600        -0.025934
1643124138.0000    457988.100000       -79.350880        59.965680        -0.045228
1643124139.0000    457753.800000       -92.105510        59.967770         0.160302
1643124140.0000    457774.500000      -104.688200        59.968280         0.155052
1643124141.0000    457711.500000      -116.729600        59.966470         0.117439
1643124142.0000    457757.500000      -128.475400        59.968020         0.095251
1643124143.0000    457952.200000      -139.631500        59.971090         0.031819
1643124144.0000    457851.300000      -150.147800        59.971200         0.057051
1643124145.0000    457627.400000      -160.275500        59.972020         0.008658
1643124146.0000    457418.400000      -169.941100        59.972770         0.186174
1643124147.0000    457789.400000      -179.494000        59.972010        -0.149187
1643124148.0000    457587.600000       171.079700        59.976650         0.136652
1643124149.0000    457682.000000       162.051800        59.975120         0.152381
1643124150.0000    457900.700000       153.552500        59.978810         0.144068
1643124151.0000    457967.200000       146.033000        59.982520         0.109847
1643124152.0000    458081.700000       139.054700        59.982090        -0.059770
1643124153.0000    457780.300000       132.627300        59.983300         0.005044
1643124154.0000    457839.200000       126.757000        59.981910         0.000200
1643124155.0000    457862.700000       121.695900        59.986990        -0.048417
1643124156.0000    457992.800000       117.522100        59.986240        -0.076332
1643124157.0000    457987.100000       113.595800        59.991130         0.309486
1643124158.0000    457955.900000       110.186600        59.990390        -0.129145
1643124159.0000    457988.400000       107.789400        59.994380         0.017399
1643124160.0000    458052.200000       106.009000        59.996200        -0.040866
1643124161.0000    457805.500000       105.080500        59.997650        -0.131902
1643124162.0000    457856.100000       104.529100        59.999660        -0.095547
1643124163.0000    457475.600000       104.409600        60.000350         0.001798
1643124164.0000    457761.300000       104.413900        59.999260        -0.059147
1643124165.0000    457724.900000       104.411500        59.999470         0.050164
1643124166.0000    457482.600000       104.028600        59.997590         0.044802
1643124167.0000    457641.100000       103.030600        59.999020         0.075553
1643124168.0000    457872.600000       101.871800        59.994750        -0.058072
1643124169.0000    457734.900000        99.938020        59.993970         0.101858
1643124170.0000    457549.500000        97.399940        59.989510        -0.079749
1643124171.0000    457527.600000        94.168760        59.990650         0.094442
1643124172.0000    457579.000000        90.241410        59.987470        -0.034598
1643124173.0000    457520.600000        85.475300        59.983940        -0.014569
1643124174.0000    457322.700000        79.552310        59.980870         0.038774
1643124175.0000    457453.100000        72.953400        59.980880        -0.075249
1643124176.0000    457354.200000        65.483580        59.978130        -0.408519
1643124177.0000    457676.600000        57.702060        59.977720         0.084341
1643124178.0000    457395.800000        49.717080        59.979710         0.263597
1643124179.0000    457521.100000        40.940080        59.975430         0.043754
