Terminal: BAB      765  TIJUCO PRETO
Tensão base: 765 kV
SOC inicial: 1643124120
SOC final: 1643124179
Taxa: 1 fasores/s
Total de frames faltantes: - 

Tempo_(SOC)           VB_mod_(V)     VB_ang_(graus)     Frequência        Delta_Freq     Faltante
1643124120.0000    437400.600000       132.208200        59.975420         0.178846
1643124121.0000    437254.700000       123.150200        59.973690        -0.189029
1643124122.0000    436954.000000       113.656100        59.968820        -0.538071
1643124123.0000    437583.400000       103.706800        59.971640        -0.216834
1643124124.0000    437575.900000        93.503330        59.972940         0.098504
1643124125.0000    437557.100000        82.791590        59.970170        -0.015193
1643124126.0000    437329.900000        71.582570        59.968570         0.140781
1643124127.0000    437513.000000        60.007190        59.966240        -0.004936
1643124128.0000    437298.500000        48.798100        59.966770        -0.486950
1643124129.0000    437528.700000        37.296940        59.968750         0.021761
1643124130.0000    437686.700000        25.964290        59.972340         0.011912
1643124131.0000    437071.900000        14.329460        59.964410        -0.256107
1643124132.0000    437110.800000         2.014118        59.963840         0.013800
1643124133.0000    437307.600000       -10.874070        59.965550         0.089387
1643124134.0000    437174.400000       -24.447540        59.958220        -0.215342
1643124135.0000    437428.800000       -38.721170        59.959720        -0.004545
1643124136.0000    437442.600000       -53.161850        59.960510        -0.304890
1643124137.0000    437282.800000       -67.222280        59.960670         0.023353
1643124138.0000    437607.700000       -80.657360        59.965460        -0.097756
1643124139.0000    437331.200000       -93.419400        59.970150         0.336001
1643124140.0000    437352.600000      -105.996300        59.968240         0.043941
1643124141.0000    437291.600000      -118.042000        59.965770         0.089642
1643124142.0000    437378.800000      -129.782600        59.967130        -0.024524
1643124143.0000    437547.100000      -140.938600        59.971220         0.035253
1643124144.0000    437450.200000      -151.464200        59.971210        -0.010279
1643124145.0000    437178.200000      -161.590000        59.973030         0.205700
1643124146.0000    436889.000000      -171.265800        59.972170         0.287659
1643124147.0000    437401.400000       179.189900        59.972320        -0.100235
1643124148.0000    437155.100000       169.746600        59.976620         0.142154
1643124149.0000    437258.100000       160.724500        59.974770         0.201740
1643124150.0000    437476.600000       152.242800        59.977650         0.079566
1643124151.0000    437537.400000       144.719900        59.982470         0.127582
1643124152.0000    437680.100000       137.736300        59.981290        -0.053160
1643124153.0000    437317.800000       131.303300        59.982200        -0.110465
1643124154.0000    437416.700000       125.421200        59.980400        -0.031767
1643124155.0000    437396.100000       120.378800        59.986980        -0.106799
1643124156.0000    437541.500000       116.180200        59.986090        -0.034707
1643124157.0000    437584.200000       112.263100        59.991740         0.238492
1643124158.0000    437518.300000       108.865400        59.990390        -0.241577
1643124159.0000    437580.100000       106.462400        59.994850        -0.060505
1643124160.0000    437624.400000       104.680200        59.995720        -0.067291
1643124161.0000    437325.300000       103.736800        59.998190         0.035740
1643124162.0000    437414.800000       103.192600        59.999920         0.015940
1643124163.0000    436977.700000       103.061600        60.000870         0.101589
1643124164.0000    437321.400000       103.068600        59.999990         0.120247
1643124165.0000    437262.500000       103.066600        59.999790        -0.037537
1643124166.0000    437028.100000       102.691500        59.998260         0.106771
1643124167.0000    437208.300000       101.697500        59.997870         0.029418
1643124168.0000    437518.700000       100.533400        59.994800        -0.031243
1643124169.0000    437379.800000        98.605180        59.994590         0.156953
1643124170.0000    437108.600000        96.061280        59.990070        -0.048731
1643124171.0000    437080.300000        92.835190        59.990610        -0.008948
1643124172.0000    437206.100000        88.906920        59.988580        -0.059782
1643124173.0000    437107.100000        84.135320        59.983460        -0.109982
1643124174.0000    436893.100000        78.210040        59.980630         0.176380
1643124175.0000    437012.900000        71.618940        59.980380        -0.123193
1643124176.0000    436909.900000        64.154950        59.978380        -0.428785
1643124177.0000    437276.500000        56.369920        59.977880         0.146337
1643124178.0000    436934.000000        48.383040        59.981670         0.490508
1643124179.0000    437106.800000        39.610740        59.974660         0.083967
