Terminal: BAB2     500  SANTA LUZIA II
Tensão base: 500 kV
SOC inicial: 1643124120
SOC final: 1643124179
Taxa: 1 fasores/s
Total de frames faltantes: - 

Tempo_(SOC)           VB_mod_(V)     VB_ang_(graus)     Frequência        Delta_Freq     Faltante
1643124120.0000    307476.900000      -143.695600        59.975730         0.035019
1643124121.0000    307394.300000      -152.690400        59.973050        -0.033646
1643124122.0000    307368.800000      -162.108500        59.972830        -0.051956
1643124123.0000    307393.000000      -172.114700        59.971780         0.028839
1643124124.0000    307462.500000       177.559700        59.971130         0.008011
1643124125.0000    307467.400000       166.937800        59.971320         0.052414
1643124126.0000    307385.800000       155.773000        59.969260         0.007782
1643124127.0000    307331.600000       144.226900        59.965780        -0.046005
1643124128.0000    307459.300000       132.722300        59.970170         0.053787
1643124129.0000    307426.900000       121.609700        59.969190         0.012589
1643124130.0000    307433.100000       110.133900        59.966800        -0.032272
1643124131.0000    307356.600000        98.621110        59.966770        -0.094528
1643124132.0000    307407.000000        86.579140        59.965700         0.061798
1643124133.0000    307304.100000        73.444960        59.961860        -0.008926
1643124134.0000    307315.300000        59.791410        59.961920         0.003891
1643124135.0000    307274.000000        45.654370        59.959150        -0.062485
1643124136.0000    307412.100000        31.031310        59.959330        -0.011444
1643124137.0000    307387.900000        17.211860        59.961770        -0.011444
1643124138.0000    307423.400000         4.000812        59.963560        -0.026550
1643124139.0000    307352.800000        -8.932039        59.965110         0.056076
1643124140.0000    307328.600000       -21.273280        59.965080        -0.016251
1643124141.0000    307377.200000       -33.431810        59.967900         0.029068
1643124142.0000    307473.300000       -45.020260        59.967790         0.001144
1643124143.0000    307461.600000       -56.276170        59.970790         0.029984
1643124144.0000    307406.500000       -66.824830        59.971580         0.023575
1643124145.0000    307404.600000       -76.731040        59.970630        -0.104370
1643124146.0000    307409.400000       -86.377920        59.972640        -0.058823
1643124147.0000    307377.300000       -95.851460        59.974040         0.044632
1643124148.0000    307375.800000      -105.401200        59.974070        -0.001144
1643124149.0000    307345.700000      -114.495200        59.975920        -0.014191
1643124150.0000    307378.400000      -123.098600        59.976230        -0.033875
1643124151.0000    307497.800000      -130.788100        59.980180         0.014420
1643124152.0000    307485.300000      -137.588600        59.982850         0.060196
1643124153.0000    307468.900000      -144.069200        59.982200        -0.000916
1643124154.0000    307426.900000      -150.149800        59.984590         0.013504
1643124155.0000    307499.200000      -155.151000        59.987390         0.033875
1643124156.0000    307512.800000      -159.440200        59.989530         0.046234
1643124157.0000    307442.700000      -163.120700        59.989850        -0.014191
1643124158.0000    307508.900000      -166.740100        59.990690        -0.002518
1643124159.0000    307531.700000      -169.303400        59.994710        -0.019913
1643124160.0000    307462.900000      -170.847900        59.996630        -0.017624
1643124161.0000    307565.900000      -172.005200        59.998940         0.056076
1643124162.0000    307491.700000      -172.302900        59.999250        -0.024261
1643124163.0000    307448.500000      -172.326400        60.001100        -0.019226
1643124164.0000    307425.400000      -172.356200        59.999850         0.005035
1643124165.0000    307495.300000      -172.609900        59.998760        -0.005264
1643124166.0000    307399.600000      -172.698400        60.000220         0.014877
1643124167.0000    307395.200000      -173.559800        59.997050         0.040512
1643124168.0000    307301.900000      -175.298400        59.994480        -0.022888
1643124169.0000    307332.600000      -177.041000        59.994420         0.021973
1643124170.0000    307372.600000      -179.713200        59.992160        -0.014191
1643124171.0000    307372.700000       177.254000        59.992060         0.088577
1643124172.0000    307282.800000       173.466500        59.987260        -0.064316
1643124173.0000    307320.200000       168.579900        59.986050         0.060196
1643124174.0000    307358.600000       163.003000        59.982800        -0.026093
1643124175.0000    307325.800000       156.233600        59.978920        -0.032730
1643124176.0000    307300.800000       148.732400        59.979030         0.030212
1643124177.0000    307389.700000       140.714500        59.977440        -0.007782
1643124178.0000    307379.600000       132.855600        59.977480         0.016479
1643124179.0000    307287.500000       124.329700        59.975240         0.061569
