Terminal: LT 230  ROSANA - N.P.PRIMAVERA C2
Tensão base: 230 kV
SOC inicial: 1643124120
SOC final: 1643124179
Taxa: 1 fasores/s
Total de frames faltantes: - 

Tempo_(SOC)           VA_mod_(V)     VA_ang_(graus)     VB_mod_(V)     VB_ang_(graus)     VC_mod_(V)     VC_ang_(graus)     IA_mod_(A)     IA_ang_(graus)     IB_mod_(A)     IB_ang_(graus)     IC_mod_(A)     IC_ang_(graus)     Frequência        Delta_Freq     Faltante
1643124120.0000    128185.200000       -92.246670    128313.600000       147.549200    127941.000000        27.677330        55.809500       138.875400        56.276650         8.865434        47.117620      -104.453100        59.974890         0.000061
1643124121.0000    128177.100000      -101.352300    128320.800000       138.444700    127943.000000        18.565860        55.348400       129.888200        55.834560        -0.231820        46.509260      -113.263400        59.974640        -0.027083
1643124122.0000    128164.600000      -110.781800    128292.000000       129.016300    127924.500000         9.143632        55.654910       120.150700        56.184970        -9.727663        46.960120      -123.167100        59.973060        -0.003200
1643124123.0000    128185.900000      -120.773900    128328.300000       119.019500    127943.900000        -0.857228        54.900990       110.610500        55.330110       -19.651280        46.127810      -132.606800        59.972770         0.004229
1643124124.0000    128184.700000      -130.963600    128321.300000       108.833600    127947.000000       -11.042680        54.897020       100.430700        55.462760       -29.600230        46.196280      -142.697200        59.971360         0.017916
1643124125.0000    128175.600000      -141.693500    128306.400000        98.099560    127926.800000       -21.772340        55.096140        89.620450        55.545610       -40.283520        46.232320      -153.451900        59.969840        -0.012878
1643124126.0000    128174.200000      -152.898300    128316.500000        86.895780    127933.100000       -32.981280        55.136760        78.435020        55.612690       -51.590050        46.365880      -164.825000        59.968580         0.023311
1643124127.0000    128189.200000      -164.501300    128317.200000        75.295130    127945.600000       -44.577260        55.179560        66.628430        55.584260       -63.443240        46.524760      -176.626800        59.968120        -0.000435
1643124128.0000    128193.500000      -175.718600    128319.100000        64.084660    127961.700000       -55.790640        54.864580        55.961880        55.591530       -73.984890        46.385130       172.675000        59.969510        -0.014590
1643124129.0000    128197.900000       172.798000    128327.100000        52.591510    127949.400000       -67.279820        55.449160        43.686330        55.959810       -86.283050        46.731200       160.644900        59.968810         0.026204
1643124130.0000    128202.400000       161.422100    128346.000000        41.219990    127969.100000       -78.659140        54.905780        33.145690        55.445080       -97.003200        46.169400       149.990800        59.969930        -0.005911
1643124131.0000    128160.500000       149.854700    128298.400000        29.648750    127917.200000       -90.226100        55.268520        21.135160        55.657030      -108.949800        46.501200       138.207100        59.966500        -0.024814
1643124132.0000    128163.100000       137.558700    128295.500000        17.351290    127914.400000      -102.520800        55.187660         8.642716        55.619830      -121.389800        46.456780       125.450200        59.964830        -0.032261
1643124133.0000    128174.500000       124.615500    128300.700000         4.405855    127918.600000      -115.463000        54.861180        -4.465550        55.403900      -134.439200        46.208590       112.379200        59.963410         0.007287
1643124134.0000    128151.100000       111.082500    128280.300000        -9.128843    127892.900000      -128.997900        55.093140       -17.637900        55.469710      -147.645700        46.431190        99.401400        59.961530         0.023799
1643124135.0000    128181.000000        96.777770    128301.700000       -23.431690    127922.900000      -143.298800        54.620520       -31.884580        54.980320      -161.886800        45.891880        85.188210        59.959740         0.037899
1643124136.0000    128179.600000        82.302570    128309.800000       -37.907740    127924.700000      -157.777700        54.903690       -46.182500        55.198870      -176.200800        46.128720        70.890600        59.960030        -0.066564
1643124137.0000    128189.300000        68.227310    128320.600000       -51.981650    127937.900000      -171.852600        55.441200       -60.768060        55.833760       169.429300        46.761780        56.254460        59.962200         0.018557
1643124138.0000    128201.000000        54.814120    128340.100000       -65.395130    127952.200000       174.730900        55.574940       -73.991460        56.006260       155.923600        46.796320        43.065040        59.963430        -0.061056
1643124139.0000    128197.900000        42.071360    128322.500000       -78.136510    127943.900000       161.994800        55.563010       -86.563510        55.913560       143.678200        46.843640        30.449420        59.965310         0.046272
1643124140.0000    128195.100000        29.458610    128327.000000       -90.746510    127950.100000       149.380800        55.749950       -99.058290        56.136170       131.117000        46.903560        17.863300        59.966270         0.017437
1643124141.0000    128199.400000        17.455610    128317.400000      -102.754400    127937.500000       137.380600        55.825750      -111.238500        56.166320       118.997100        47.167930         6.033637        59.967680        -0.014809
1643124142.0000    128196.400000         5.688892    128322.000000      -114.515800    127949.600000       125.613400        55.813050      -123.016100        56.386310       107.026800        47.102700        -6.401024        59.968180         0.035254
1643124143.0000    128206.400000        -5.472136    128331.500000      -125.679200    127954.600000       114.451200        55.772430      -134.174900        56.241440        96.011210        47.090880       -17.114050        59.970100        -0.007969
1643124144.0000    128210.800000       -15.961470    128322.700000      -136.170900    127947.600000       103.966000        55.380540      -144.400900        55.949540        85.714790        46.864930       -27.363120        59.971890        -0.022836
1643124145.0000    128198.600000       -26.083170    128311.900000      -146.289500    127942.300000        93.845690        55.719550      -154.844800        56.328790        75.303210        47.144490       -37.979530        59.972690         0.072440
1643124146.0000    128191.400000       -35.757800    128298.600000      -155.957700    127943.500000        84.176360        55.455880      -164.505700        56.116820        65.729550        47.005040       -47.679750        59.974110         0.042965
1643124147.0000    128199.500000       -45.310860    128315.700000      -165.520000    127938.900000        74.615200        55.413680      -174.315700        55.732700        55.778690        46.796560       -57.366610        59.973680         0.012718
1643124148.0000    128193.300000       -54.741740    128300.200000      -174.950300    127929.200000        65.187860        55.004790       176.622900        55.540280        46.828760        46.421670       -66.485280        59.974660        -0.041984
1643124149.0000    128190.600000       -63.789210    128306.200000       176.003000    127932.600000        56.137410        55.243340       167.415700        55.832810        37.479680        46.694300       -75.647480        59.975520         0.016306
1643124150.0000    128209.800000       -72.300490    128323.800000       167.490200    127947.700000        47.626060        55.257090       158.747200        55.818600        28.891610        46.723710       -84.281750        59.977760        -0.007290
1643124151.0000    128212.300000       -79.798930    128330.300000       159.992600    127954.200000        40.126640        55.394300       151.592600        55.849690        21.569830        46.704020       -91.524670        59.980320        -0.016575
1643124152.0000    128209.000000       -86.803270    128333.500000       152.987300    127952.400000        33.119050        55.236490       144.553800        55.503940        14.555690        46.446080       -98.480360        59.981640        -0.007862
1643124153.0000    128179.300000       -93.216870    128315.700000       146.572800    127927.900000        26.700720        55.820270       137.450600        56.239460         7.375004        47.063630      -105.507600        59.982560         0.016227
1643124154.0000    128203.300000       -99.104450    128321.100000       140.684000    127939.000000        20.819700        55.373060       131.940900        55.747140         2.306883        46.763080      -110.784400        59.984880        -0.033558
1643124155.0000    128206.200000      -104.178700    128325.200000       135.613100    127949.500000        15.746490        55.188470       127.124700        55.662380        -2.935718        46.557140      -115.958400        59.987170        -0.005191
1643124156.0000    128202.200000      -108.378300    128331.500000       131.414300    127951.700000        11.543150        55.125600       123.063000        55.535890        -6.812028        46.477950      -119.888200        59.989250         0.033915
1643124157.0000    128198.700000      -112.283000    128321.100000       127.512600    127950.800000         7.642639        54.934050       119.239000        55.402320       -10.820060        46.248550      -124.086800        59.989860         0.035617
1643124158.0000    128209.000000      -115.725300    128331.700000       124.069400    127959.500000         4.199704        54.933240       115.825900        55.431170       -14.221760        46.341770      -127.371000        59.992610        -0.018786
1643124159.0000    128197.300000      -118.092400    128328.900000       121.699400    127946.300000         1.827675        54.932880       113.518400        55.143250       -16.553350        46.124700      -129.473000        59.994380        -0.020650
1643124160.0000    128212.000000      -119.881200    128336.300000       119.911500    127959.100000         0.042323        55.077470       111.662800        55.456660       -18.160110        46.398110      -131.346600        59.996240         0.028895
1643124161.0000    128191.400000      -120.767000    128317.200000       119.029200    127946.000000        -0.842424        54.803250       111.058700        55.238480       -18.880970        46.212490      -132.023100        59.998170        -0.009211
1643124162.0000    128186.100000      -121.329700    128322.000000       118.465700    127944.400000        -1.409319        55.298710       110.406200        55.630230       -19.589770        46.460080      -132.723900        59.999200        -0.046765
1643124163.0000    128176.900000      -121.394500    128301.300000       118.398700    127925.000000        -1.470869        55.258530       110.190700        55.665390       -19.833760        46.519700      -132.837200        60.000740        -0.031826
1643124164.0000    128195.100000      -121.430600    128315.800000       118.360400    127937.100000        -1.506851        54.759640       110.237900        55.088810       -19.706960        46.013400      -132.758700        60.000520        -0.014960
1643124165.0000    128184.200000      -121.437000    128311.200000       118.355900    127933.000000        -1.514745        54.613500       110.231300        54.952900       -19.735480        45.921600      -132.679600        59.999990        -0.000830
1643124166.0000    128163.900000      -121.821700    128293.100000       117.976100    127923.200000        -1.897806        54.823400       109.569000        55.383840       -20.544080        46.112960      -133.488900        59.998340         0.014958
1643124167.0000    128151.400000      -122.806300    128278.700000       116.986000    127899.100000        -2.884245        54.933270       108.519100        55.429550       -21.528220        46.239770      -134.465500        59.997570         0.004978
1643124168.0000    128130.000000      -123.980800    128260.000000       115.811800    127880.000000        -4.059638        55.082290       107.549500        55.334680       -22.540860        46.370240      -135.404400        59.996230        -0.019327
1643124169.0000    128132.200000      -125.905000    128265.500000       113.890300    127889.200000        -5.983707        55.370600       105.423400        55.696110       -24.622360        46.469820      -137.592800        59.993710        -0.029935
1643124170.0000    128152.400000      -128.447300    128281.100000       111.349300    127909.400000        -8.523688        54.856490       103.171500        55.340320       -26.790990        46.155560      -139.836800        59.992420         0.016048
1643124171.0000    128151.700000      -131.653900    128279.100000       108.138800    127900.000000       -11.731810        54.615700       100.042300        55.042360       -30.121180        46.049750      -143.084000        59.990820        -0.076882
1643124172.0000    128147.800000      -135.569700    128272.100000       104.223200    127895.200000       -15.646020        55.246110        96.167540        55.621280       -33.881300        46.481310      -146.890800        59.988690        -0.018689
1643124173.0000    128122.200000      -140.330700    128260.000000        99.466580    127884.800000       -20.410580        54.877970        91.438960        55.432890       -38.768370        46.098860      -151.831300        59.985170        -0.055048
1643124174.0000    128138.300000      -146.228100    128266.600000        93.567340    127893.000000       -26.304860        55.611150        84.495880        56.191890       -45.390330        46.887770      -158.621200        59.982860        -0.027685
1643124175.0000    128146.400000      -152.867100    128284.700000        86.930770    127910.800000       -32.946520        55.349850        78.411510        55.890050       -51.811760        46.519020      -164.786100        59.981180         0.024200
1643124176.0000    128126.400000      -160.390900    128266.300000        79.409560    127896.400000       -40.469440        55.165110        71.114400        55.896610       -58.856510        46.422860      -171.926100        59.978220        -0.020263
1643124177.0000    128145.000000      -168.151900    128275.100000        71.646570    127905.700000       -48.228000        55.446220        63.785360        55.874240       -66.428150        46.668030      -179.246400        59.978890        -0.012716
1643124178.0000    128162.400000      -176.132200    128289.400000        63.667740    127925.000000       -56.205970        55.240600        55.679520        55.775350       -74.225940        46.733890       172.537500        59.978240         0.021333
1643124179.0000    128174.300000       175.096000    128314.100000        54.892110    127936.100000       -64.984660        55.090230        46.424210        55.645870       -83.685540        46.323940       163.254000        59.975140         0.011140
