Terminal: LT 230  ROSANA - N.P.PRIMAVERA C1
Tensão base: 230 kV
SOC inicial: 1643124120
SOC final: 1643124179
Taxa: 1 fasores/s
Total de frames faltantes: - 

Tempo_(SOC)           VA_mod_(V)     VA_ang_(graus)     VB_mod_(V)     VB_ang_(graus)     VC_mod_(V)     VC_ang_(graus)     IA_mod_(A)     IA_ang_(graus)     IB_mod_(A)     IB_ang_(graus)     IC_mod_(A)     IC_ang_(graus)     Frequência        Delta_Freq     Faltante
1643124120.0000    128178.000000       -92.201450    128037.400000       147.575500    127791.000000        27.735570        54.334330       139.220200        54.766170         9.574125        46.073040      -104.248600        59.974990        -0.011889
1643124121.0000    128170.300000      -101.307800    128045.000000       138.470500    127793.300000        18.623540        54.058610       130.370200        54.372820         0.451399        45.491020      -113.026700        59.974610        -0.051152
1643124122.0000    128158.400000      -110.737000    128017.100000       129.042300    127775.300000         9.201474        54.229900       120.516900        54.540410        -8.962690        46.073670      -122.923200        59.972960        -0.021821
1643124123.0000    128179.600000      -120.729300    128053.000000       119.045400    127794.400000        -0.799346        53.438380       110.920500        53.697070       -18.926550        45.226820      -132.391100        59.972730         0.014992
1643124124.0000    128178.300000      -130.919300    128046.200000       108.858800    127797.100000       -10.985300        53.639590       100.886300        53.770680       -29.007570        45.239990      -142.282300        59.971350         0.034327
1643124125.0000    128168.600000      -141.649900    128031.000000        98.124360    127777.000000       -21.715640        53.554480        90.033150        53.871450       -39.680800        45.314210      -153.307100        59.969920        -0.000061
1643124126.0000    128167.000000      -152.855500    128040.000000        86.920040    127783.500000       -32.924970        53.657180        78.659470        53.892950       -50.960930        45.346490      -164.477100        59.968690         0.014856
1643124127.0000    128182.600000      -164.458800    128041.300000        75.318760    127795.900000       -44.521600        53.710920        66.993650        54.024000       -62.517010        45.527000      -176.455500        59.968140        -0.023597
1643124128.0000    128186.800000      -175.676000    128044.100000        64.108360    127812.000000       -55.734700        53.527100        56.299810        53.897140       -73.254200        45.372630       172.940200        59.969480        -0.019654
1643124129.0000    128191.400000       172.842200    128051.600000        52.616650    127800.500000       -67.222530        53.962110        44.094180        54.172630       -85.533130        45.843900       160.955200        59.968820         0.037691
1643124130.0000    128195.400000       161.464800    128069.500000        41.244060    127819.600000       -78.603160        53.588300        33.447680        53.764550       -96.259410        45.078510       149.957400        59.970010         0.014362
1643124131.0000    128153.400000       149.897800    128021.900000        29.673250    127767.300000       -90.169700        53.853720        21.592250        54.006810      -108.224900        45.391710       138.303200        59.966570        -0.027603
1643124132.0000    128156.000000       137.602700    128020.000000        17.376530    127764.600000      -102.463600        53.868480         9.112403        54.068860      -120.693600        45.473800       125.908500        59.964850        -0.049196
1643124133.0000    128167.800000       124.658400    128025.900000         4.429945    127769.600000      -115.407000        53.575920        -4.253702        53.809380      -133.829500        45.203250       112.434800        59.963330        -0.000053
1643124134.0000    128144.600000       111.126300    128005.200000        -9.104056    127743.500000      -128.941000        53.671580       -17.363380        53.705460      -147.078400        45.441180        99.428860        59.961510         0.038246
1643124135.0000    128173.900000        96.822210    128026.100000       -23.405680    127772.900000      -143.240700        53.261220       -31.411930        53.397140      -161.036800        45.025030        85.355030        59.959870         0.053958
1643124136.0000    128172.600000        82.346170    128034.000000       -37.883090    127774.400000      -157.720800        53.440550       -45.701960        53.597410      -175.375200        45.123840        71.092450        59.960080        -0.079654
1643124137.0000    128183.000000        68.270260    128044.800000       -51.957460    127788.500000      -171.796500        53.952670       -60.352420        54.129620       170.150000        45.677140        56.506580        59.962150        -0.003533
1643124138.0000    128194.500000        54.857850    128064.700000       -65.370320    127803.000000       174.788200        54.204770       -73.713970        54.254040       156.793200        45.809440        43.109560        59.963390        -0.047283
1643124139.0000    128190.700000        42.115540    128046.700000       -78.111020    127794.200000       162.051900        54.062400       -86.181210        54.301830       144.310300        45.881210        30.685340        59.965390         0.065779
1643124140.0000    128187.500000        29.502500    128051.000000       -90.721600    127800.200000       149.437500        54.291680       -98.806230        54.490320       131.825900        46.063080        18.093030        59.966360         0.015695
1643124141.0000    128192.700000        17.499680    128040.900000      -102.729100    127787.800000       137.437900        54.405400      -110.756600        54.693950       119.776000        46.175360         6.096642        59.967680        -0.035850
1643124142.0000    128189.800000         5.732164    128046.800000      -114.491200    127800.300000       125.670100        54.372220      -122.723000        54.836300       107.758500        46.223080        -6.133220        59.968120         0.020400
1643124143.0000    128199.900000        -5.428747    128056.700000      -125.654600    127805.300000       114.507900        54.352450      -133.770200        54.618910        96.621310        45.951680       -17.048540        59.970030         0.008282
1643124144.0000    128203.600000       -15.918030    128047.000000      -136.145800    127797.800000       104.023100        54.014030      -144.104300        54.232170        86.598460        45.909210       -27.155780        59.971920         0.002366
1643124145.0000    128191.800000       -26.040460    128035.500000      -146.265600    127792.600000        93.901630        54.448390      -154.541800        54.625870        76.078060        46.192960       -37.812510        59.972800         0.083260
1643124146.0000    128184.000000       -35.714920    128022.100000      -155.933700    127793.700000        84.232660        54.080590      -164.132400        54.440050        66.451620        45.988460       -47.402260        59.974200         0.031658
1643124147.0000    128192.800000       -45.266080    128039.600000      -165.494500    127789.000000        74.672970        54.073670      -173.967900        54.224760        56.549810        45.758260       -57.159600        59.973690        -0.012363
1643124148.0000    128186.800000       -54.697710    128025.100000      -174.925100    127779.600000        65.245240        53.555610       176.987300        53.809410        47.469740        45.546470       -66.283730        59.974640        -0.055151
1643124149.0000    128184.000000       -63.745890    128031.200000       176.027600    127783.200000        56.194080        53.888910       167.573600        53.947090        38.213590        45.699320       -75.511280        59.975500         0.018762
1643124150.0000    128203.300000       -72.257060    128047.800000       167.514800    127798.800000        47.682810        53.846430       159.090400        54.066810        29.565860        45.658580       -84.143790        59.977750         0.014918
1643124151.0000    128205.400000       -79.755720    128054.400000       160.017000    127804.800000        40.182990        54.029010       151.798200        54.225600        22.381930        45.885750       -91.258070        59.980370         0.000453
1643124152.0000    128201.600000       -86.760040    128057.200000       153.011700    127802.300000        33.175500        53.813370       144.839800        54.063510        15.249180        45.509640       -98.278530        59.981750        -0.007638
1643124153.0000    128172.000000       -93.172730    128039.700000       146.597900    127777.700000        26.758090        54.412820       137.795300        54.561610         8.280210        45.950620      -105.505700        59.982680         0.015125
1643124154.0000    128196.500000       -99.060750    128045.100000       140.708400    127788.900000        20.876370        54.011120       132.459500        54.137990         2.978063        45.715550      -110.350900        59.984930        -0.045224
1643124155.0000    128199.300000      -104.135200    128049.100000       135.638200    127800.200000        15.803520        53.769160       127.494400        54.030340        -2.170060        45.514050      -115.785600        59.987210        -0.017418
1643124156.0000    128195.500000      -108.335200    128055.900000       131.438400    127802.300000        11.599320        53.632030       123.322400        53.879530        -6.094658        45.445600      -119.723000        59.989240         0.011576
1643124157.0000    128192.100000      -112.240700    128045.500000       127.536100    127801.400000         7.698346        53.421640       119.477300        53.852180       -10.127740        45.309580      -123.784200        59.989820         0.022262
1643124158.0000    128203.000000      -115.682400    128056.700000       124.093500    127810.000000         4.256063        53.633520       116.039900        53.795340       -13.661560        45.374810      -127.081500        59.992530        -0.023971
1643124159.0000    128191.200000      -118.048600    128053.700000       121.724100    127796.900000         1.884806        53.487520       113.963300        53.510520       -15.906480        45.294710      -129.171000        59.994280        -0.027907
1643124160.0000    128205.600000      -119.838500    128061.000000       119.935100    127809.700000         0.098263        53.603660       112.135200        53.755220       -17.474160        45.382210      -130.999600        59.996190         0.027507
1643124161.0000    128185.000000      -120.723100    128042.200000       119.054200    127796.900000        -0.785214        53.545760       111.497300        53.657990       -18.161740        45.167140      -131.785100        59.998130        -0.008872
1643124162.0000    128179.900000      -121.285900    128046.300000       118.490800    127795.500000        -1.352005        53.840860       110.782100        53.934980       -18.920680        45.591220      -132.463400        59.999080        -0.040614
1643124163.0000    128170.300000      -121.351600    128025.700000       118.422700    127775.600000        -1.414587        53.830100       110.466500        54.067900       -18.990470        45.546340      -132.691100        60.000710        -0.029965
1643124164.0000    128188.800000      -121.387000    128040.400000       118.385200    127787.800000        -1.449856        53.170440       110.553000        53.439120       -19.029740        45.050430      -132.427100        60.000450        -0.014941
1643124165.0000    128177.600000      -121.393400    128035.400000       118.381000    127784.100000        -1.457846        53.238910       110.768300        53.384040       -19.041220        44.945970      -132.499900        59.999940         0.003280
1643124166.0000    128157.500000      -121.779100    128018.100000       117.999800    127774.500000        -1.841914        53.504940       109.942100        53.724220       -19.781060        45.204190      -133.388600        59.998230         0.009281
1643124167.0000    128145.100000      -122.763500    128002.800000       117.009800    127750.000000        -2.828293        53.619580       108.988500        53.793230       -20.704840        45.296300      -134.291000        59.997490         0.003099
1643124168.0000    128123.700000      -123.937200    127984.500000       115.836600    127731.100000        -4.002985        53.654720       108.026700        53.745940       -21.607360        45.235050      -135.097600        59.996150        -0.023110
1643124169.0000    128125.900000      -125.862500    127989.800000       113.913700    127740.300000        -5.928007        53.802480       105.655600        54.160090       -23.980300        45.430870      -137.381500        59.993660        -0.020633
1643124170.0000    128145.800000      -128.404000    128005.700000       111.373800    127760.100000        -8.467121        53.498950       103.663500        53.655070       -26.144630        45.048640      -139.765600        59.992420         0.027749
1643124171.0000    128145.100000      -131.609700    128003.300000       108.164100    127750.600000       -11.674380        53.325740       100.435700        53.508310       -29.308850        44.922540      -142.896600        59.990780        -0.060548
1643124172.0000    128141.600000      -135.526400    127996.500000       104.247500    127745.600000       -15.589750        53.804440        96.484740        54.004890       -33.110770        45.483850      -146.732300        59.988690        -0.000851
1643124173.0000    128115.300000      -140.287400    127984.300000        99.490990    127735.400000       -20.353870        53.507940        91.679850        53.701760       -38.154750        45.051170      -151.607300        59.985180        -0.030107
1643124174.0000    128131.200000      -146.183700    127990.900000        93.592810    127743.100000       -26.247280        54.178870        84.928920        54.608540       -44.791790        45.877800      -158.527000        59.982960        -0.011216
1643124175.0000    128139.100000      -152.823100    128008.800000        86.955820    127760.700000       -32.889580        53.848550        78.814870        54.176170       -51.015940        45.441920      -164.638100        59.981320         0.026477
1643124176.0000    128119.300000      -160.346800    127989.900000        79.435050    127746.700000       -40.412100        53.951090        71.610930        54.178960       -58.248540        45.491490      -171.806500        59.978290        -0.031924
1643124177.0000    128138.200000      -168.107700    127998.900000        71.671790    127755.700000       -48.170420        53.930510        64.176270        54.143070       -65.510330        45.655220      -178.936400        59.978890        -0.037121
1643124178.0000    128156.100000      -176.090400    128013.800000        63.690670    127775.700000       -56.151030        53.892270        56.047210        54.158290       -73.626000        45.687400       172.757200        59.978240         0.004516
1643124179.0000    128168.100000       175.137900    128038.900000        54.915240    127787.000000       -64.929390        53.843110        46.808290        54.125480       -83.131160        45.336520       163.332500        59.975050         0.012885
