Terminal: LT 440  BRACELL - OESTE C1
Tensão base: 440 kV
SOC inicial: 1643124120
SOC final: 1643124179
Taxa: 1 fasores/s
Total de frames faltantes: - 

Tempo_(SOC)           VA_mod_(V)     VA_ang_(graus)     VB_mod_(V)     VB_ang_(graus)     VC_mod_(V)     VC_ang_(graus)     IA_mod_(A)     IA_ang_(graus)     IB_mod_(A)     IB_ang_(graus)     IC_mod_(A)     IC_ang_(graus)     Frequência        Delta_Freq     Faltante
1643124120.0000    260852.500000      -101.757500    261420.300000       138.109400    260160.600000        18.044730       943.127600       -98.170130       926.743200       141.863700       916.184500        19.230190        59.974010         0.011327
1643124121.0000    260765.000000      -110.849100    261431.500000       129.029800    260173.700000         8.939944       942.721100      -107.297400       925.894300       132.765500       916.576800        10.097770        59.974880        -0.033594
1643124122.0000    260849.300000      -120.303000    261377.200000       119.567800    260149.200000        -0.491922       943.827000      -116.751300       927.090100       123.290900       917.384300         0.659262        59.972720        -0.057716
1643124123.0000    260917.300000      -130.276300    261600.900000       109.577800    260239.900000       -10.503780       942.350500      -126.642900       925.970000       113.444900       916.349000        -9.232807        59.973060        -0.015847
1643124124.0000    260934.900000      -140.480600    261555.100000        99.386460    260270.900000       -20.689860       943.307400      -136.883000       926.500700       103.160700       916.894800       -19.469330        59.971790         0.011486
1643124125.0000    260905.000000      -151.179800    261495.400000        88.667360    260151.900000       -31.392530       942.070300      -147.538800       925.946600        92.481060       915.551700       -30.173040        59.970090        -0.031119
1643124126.0000    260824.800000      -162.389700    261499.800000        77.465340    260141.400000       -42.615340       942.464500      -158.825100       925.621000        81.269040       916.385100       -41.407460        59.968320         0.016104
1643124127.0000    260967.600000      -173.961200    261535.000000        65.892430    260226.100000       -54.167040       941.636400      -170.288500       925.444300        69.748280       915.204000       -52.882030        59.967710         0.044088
1643124128.0000    260930.700000       174.781500    261428.600000        54.665460    260277.500000       -65.395420       942.066700       178.451800       924.981900        58.453450       915.344600       -64.142050        59.969040         0.008509
1643124129.0000    260967.400000       163.340700    261563.700000        43.189340    260218.000000       -76.873390       942.609300       166.934800       926.662200        46.969920       916.296800       -75.692140        59.969050         0.078807
1643124130.0000    260946.300000       151.954100    261612.300000        31.825290    260325.300000       -88.260680       941.528400       155.623200       925.035400        35.654190       914.897900       -86.984060        59.969350        -0.066922
1643124131.0000    260595.600000       140.366800    261325.400000        20.229410    259965.000000       -99.865460       942.906700       143.796000       926.663300        23.880610       917.226700       -98.797510        59.964710        -0.052120
1643124132.0000    260659.900000       128.050900    261386.900000         7.910676    260011.200000      -112.181800       943.706300       131.410800       927.413000        11.505720       917.621900      -111.154800        59.964490         0.025393
1643124133.0000    260912.800000       115.142800    261518.200000        -5.018516    260123.700000      -125.077300       942.755100       118.675000       926.692300        -1.285206       916.411400      -123.988300        59.963960        -0.068148
1643124134.0000    260765.500000       101.583400    261425.000000       -18.578220    260002.600000      -138.647900       943.695000       105.017800       927.358200       -14.911050       917.676500      -137.580000        59.961650         0.006716
1643124135.0000    260968.000000        87.282710    261502.900000       -32.877980    260153.400000      -152.924600       941.825700        90.924790       926.091200       -29.033560       915.591400      -151.725900        59.959280         0.006602
1643124136.0000    260774.100000        72.821310    261393.200000       -47.327510    260049.700000      -167.395000       941.037800        76.348550       924.753100       -43.568690       914.976400      -166.219600        59.959240         0.009212
1643124137.0000    260821.300000        58.751830    261420.700000       -61.396240    260084.500000       178.540800       941.522100        62.288570       925.478000       -57.655080       915.362800       179.678300        59.961760         0.010496
1643124138.0000    260850.700000        45.328410    261499.700000       -74.814390    260163.200000       165.110700       941.909200        48.921090       924.931900       -71.015960       915.741800       166.325600        59.963360         0.039939
1643124139.0000    260980.100000        32.576670    261529.800000       -87.575880    260203.400000       152.371600       941.926000        36.155980       925.345000       -83.834820       915.508400       153.531000        59.966110        -0.011902
1643124140.0000    260857.300000        19.988430    261459.800000      -100.148200    260166.300000       139.781400       942.506700        23.522500       926.077700       -96.424180       916.134400       140.924900        59.965990         0.013229
1643124141.0000    260928.700000         7.991528    261443.000000      -112.181200    260050.700000       127.783500       942.644700        11.569080       926.658900      -108.418200       916.476000       128.926200        59.968200        -0.047702
1643124142.0000    260899.600000        -3.801545    261459.300000      -123.948700    260150.400000       115.994600       941.838000        -0.204588       925.932300      -120.161000       915.812000       117.184300        59.968230         0.031707
1643124143.0000    260918.600000       -14.950920    261510.300000      -135.099300    260177.800000       104.838400       941.536500       -11.314070       925.058500      -131.249300       915.428600       106.104300        59.968720        -0.030634
1643124144.0000    260974.000000       -25.465510    261446.400000      -145.629200    260115.600000        94.339830       941.105400       -21.809300       925.333700      -141.796600       914.989000        95.551000        59.972220         0.001664
1643124145.0000    260830.100000       -35.586760    261347.300000      -155.733100    260055.500000        84.218230       942.836100       -32.060590       927.103400      -152.045700       916.565100        85.287250        59.973050         0.030897
1643124146.0000    260810.000000       -45.289100    261167.100000      -165.410100    260048.400000        74.560870       944.513100       -41.908530       927.565400      -161.938300       916.884200        75.466720        59.974920         0.077531
1643124147.0000    260895.300000       -54.798120    261469.600000      -174.955500    260111.500000        64.989590       943.104300       -51.231000       926.672800      -171.182000       917.001900        66.152040        59.974010        -0.049028
1643124148.0000    260829.100000       -64.248410    261299.500000       175.597500    260001.300000        55.562610       943.591600       -60.762390       927.296700       179.238500       916.752700        56.594070        59.974320        -0.086583
1643124149.0000    260822.300000       -73.270780    261379.400000       166.576200    260045.900000        46.522540       943.329500       -69.771510       927.308300       170.288800       917.103000        47.632190        59.976170        -0.069899
1643124150.0000    261002.500000       -81.752660    261495.900000       158.090500    260179.000000        38.051240       943.352900       -78.181750       927.020200       161.818900       916.626400        39.165570        59.978390         0.001163
1643124151.0000    260976.800000       -89.263320    261525.500000       150.581200    260186.900000        30.529420       944.167400       -85.686970       927.162100       154.338100       917.502300        31.690470        59.981190        -0.019040
1643124152.0000    260912.700000       -96.256200    261503.900000       143.594000    260169.100000        23.532040       944.080600       -92.699760       927.412400       147.348300       917.392000        24.689110        59.981200        -0.034436
1643124153.0000    260720.000000      -102.675100    261465.700000       137.183100    260075.000000        17.088260       944.580200       -99.257070       928.194900       140.833100       919.144000        18.170850        59.982640        -0.016649
1643124154.0000    260880.000000      -108.566000    261471.200000       131.273300    260089.500000        11.216360       943.029700      -105.053500       927.312400       135.021300       917.322900        12.339980        59.984910        -0.079974
1643124155.0000    260922.900000      -113.639400    261453.600000       126.217100    260173.700000         6.163701       943.417100      -110.100800       927.101300       129.907400       916.465200         7.269533        59.987540         0.025493
1643124156.0000    260847.000000      -117.853700    261475.800000       122.006000    260156.800000         1.932602       943.592700      -114.361900       926.301700       125.698400       917.126900         3.051986        59.988880         0.015641
1643124157.0000    260946.800000      -121.769400    261490.200000       118.096400    260234.800000        -1.963025       943.161700      -118.238300       926.564800       121.820800       916.184000        -0.833753        59.990710         0.044730
1643124158.0000    260900.100000      -125.179900    261459.500000       114.673700    260153.000000        -5.383248       942.054800      -121.593800       925.412600       118.422700       915.271100        -4.214046        59.994010        -0.092879
1643124159.0000    260881.200000      -127.562500    261566.500000       112.286400    260181.300000        -7.792978       942.020300      -123.980300       925.615200       116.057300       915.926400        -6.620665        59.994150        -0.020913
1643124160.0000    260924.300000      -129.358900    261542.500000       110.494400    260207.300000        -9.574270       942.106000      -125.778100       925.696000       114.281600       915.638100        -8.397719        59.995710        -0.028519
1643124161.0000    260817.600000      -130.297900    261398.600000       109.574000    260152.700000       -10.496600       943.029700      -126.737600       926.121400       113.288500       916.350800        -9.360521        59.998200         0.022964
1643124162.0000    260707.000000      -130.843500    261389.300000       109.030200    260101.200000       -11.060230       942.855500      -127.359100       925.789900       112.709000       916.223100        -9.914800        59.997930        -0.025366
1643124163.0000    260620.500000      -130.929200    261294.800000       108.930300    259946.800000       -11.150500       943.888600      -127.559500       927.342200       112.517200       918.126500       -10.155990        60.000610         0.012443
1643124164.0000    260836.700000      -130.945600    261407.100000       108.896600    260050.500000       -11.155950       942.690100      -127.385000       926.638800       112.625200       915.841900       -10.024990        60.000290         0.014676
1643124165.0000    260866.000000      -130.937200    261520.200000       108.905700    260124.800000       -11.163690       942.737700      -127.394100       926.152600       112.675000       916.091900        -9.986642        59.999510        -0.053460
1643124166.0000    260809.800000      -131.327600    261439.100000       108.540400    260151.300000       -11.536510       943.128400      -127.809800       926.373700       112.239500       916.483300       -10.399920        59.998730         0.020612
1643124167.0000    260817.000000      -132.299400    261459.200000       107.557200    260122.200000       -12.516630       943.198100      -128.770700       926.780000       111.289100       916.805300       -11.381440        59.998130        -0.015476
1643124168.0000    260908.300000      -133.482300    261560.800000       106.365100    260186.400000       -13.706990       941.686500      -129.850000       925.816300       110.187100       915.708200       -12.501530        59.997510        -0.064484
1643124169.0000    260821.000000      -135.413500    261488.800000       104.449600    260165.100000       -15.632330       942.699300      -131.872500       926.187600       108.185800       916.399100       -14.449710        59.993320        -0.063312
1643124170.0000    260748.500000      -137.990800    261368.600000       101.878200    260087.200000       -18.197240       942.805600      -134.467600       925.408900       105.562300       916.246200       -17.056090        59.991190        -0.003578
1643124171.0000    260756.500000      -141.178300    261358.700000        98.674320    260017.000000       -21.389720       943.539400      -137.693600       927.249300       102.356000       916.817300       -20.289380        59.989890         0.020234
1643124172.0000    260851.800000      -145.087200    261440.100000        94.757310    260074.400000       -25.301650       944.392500      -141.559600       928.156100        98.469540       917.954700       -24.189180        59.989110         0.005893
1643124173.0000    260692.900000      -149.866600    261356.700000        90.008800    260077.400000       -30.080040       945.377900      -146.431700       928.253800        93.607980       918.609900       -28.985380        59.985640        -0.031627
1643124174.0000    260753.300000      -155.763900    261344.700000        84.095140    260028.600000       -35.970130       946.139800      -152.363700       929.326700        87.698010       919.501300       -34.958680        59.982810        -0.009184
1643124175.0000    260752.800000      -162.363400    261371.900000        77.508230    260094.000000       -42.569940       946.192200      -158.914000       929.191400        81.112080       919.145000       -41.521480        59.980990         0.037718
1643124176.0000    260559.100000      -169.861500    261257.800000        70.027200    260012.400000       -50.073860       945.615000      -166.520000       927.980700        73.563620       919.021200       -49.032310        59.978180        -0.076059
1643124177.0000    260812.100000      -177.634300    261368.000000        62.231190    260102.400000       -57.831010       944.780000      -174.124100       927.676000        65.904460       917.709100       -56.700350        59.979120        -0.063654
1643124178.0000    260827.000000       174.376800    261362.900000        54.245680    260118.800000       -65.814920       945.586700       177.828300       928.840600        57.858630       918.680500       -64.795440        59.978220         0.044590
1643124179.0000    260754.600000       165.613800    261437.900000        45.478000    260097.500000       -74.607410       945.455600       169.028600       928.583200        49.114130       919.200100       -73.528210        59.976380        -0.016730
