Terminal: LT 440  AGUA AZUL - SANTO ANGELO C1
Tensão base: 440 kV
SOC inicial: 1643124120
SOC final: 1643124179
Taxa: 1 fasores/s
Total de frames faltantes: - 

Tempo_(SOC)           VA_mod_(V)     VA_ang_(graus)     VB_mod_(V)     VB_ang_(graus)     VC_mod_(V)     VC_ang_(graus)     IA_mod_(A)     IA_ang_(graus)     IB_mod_(A)     IB_ang_(graus)     IC_mod_(A)     IC_ang_(graus)     Frequência        Delta_Freq     Faltante
1643124120.0000    256746.300000      -111.833900    258491.800000       128.090600    257992.000000         8.041010       274.758800       -69.018750       308.088200       168.214200       248.908100        45.866260        59.973910         0.009613
1643124121.0000    256569.300000      -120.923300    258441.100000       119.026700    257979.500000        -1.064419       274.517300       -78.241810       308.224900       159.046100       249.138100        36.730690        59.973850        -0.060883
1643124122.0000    256709.000000      -130.395700    258359.800000       109.534700    257924.200000       -10.504950       273.772200       -87.919650       307.450700       149.472500       248.607500        27.113340        59.971080        -0.121307
1643124123.0000    256803.100000      -140.345000    258733.400000        99.579020    258124.900000       -20.505970       274.226000       -98.155970       305.829700       139.093900       247.525100        17.155250        59.972760        -0.011215
1643124124.0000    256832.600000      -150.552000    258652.000000        89.378080    258141.800000       -30.690630       273.084600      -108.015800       306.623400       129.028100       247.827000         6.934870        59.973090         0.077133
1643124125.0000    256831.200000      -161.241100    258629.000000        78.667370    258019.900000       -41.393520       274.114200      -118.776100       306.205000       118.547200       248.204800        -3.335570        59.970380         0.062027
1643124126.0000    256601.500000      -172.474100    258518.800000        67.451030    257906.500000       -52.635740       273.869200      -129.871600       306.312700       107.499000       247.772000       -14.655100        59.967990        -0.005951
1643124127.0000    256909.400000       175.982200    258638.000000        55.889560    258075.200000       -64.157080       272.477600      -141.700000       305.702900        95.925090       248.021500       -26.209520        59.966790        -0.045319
1643124128.0000    256878.000000       164.709300    258524.800000        44.654190    258135.000000       -75.389680       269.911400      -152.750400       304.539200        84.878750       246.921900       -37.785310        59.967400        -0.133667
1643124129.0000    256809.100000       153.266700    258616.400000        33.175380    257999.000000       -86.882330       273.167900      -164.353800       306.114600        73.179570       248.846100       -48.948400        59.971420         0.187912
1643124130.0000    256862.000000       141.896800    258702.100000        21.837250    258213.100000       -98.243010       272.613500      -175.517900       305.877600        61.771260       247.060200       -60.462560        59.972930         0.091553
1643124131.0000    256331.200000       130.251800    258260.400000        10.178510    257660.500000      -109.914000       273.587000       173.874500       305.522500        50.929840       246.297700       -70.657850        59.960910        -0.263901
1643124132.0000    256333.100000       117.943400    258268.200000        -2.133553    257649.100000      -122.224300       275.450300       161.870100       307.428800        38.648410       247.186300       -82.964450        59.964190        -0.008698
1643124133.0000    256675.600000       105.069400    258519.900000       -15.032330    257862.700000      -135.095400       273.821500       147.935000       304.956700        25.341060       248.034000       -96.372550        59.964020        -0.029755
1643124134.0000    256465.200000        91.489810    258433.100000       -28.616510    257682.600000      -148.697800       272.615300       134.368900       303.224800        11.697810       246.449100      -109.905300        59.959100         0.001602
1643124135.0000    256817.800000        77.222470    258600.200000       -42.887370    257932.100000      -162.925100       272.856700       119.691900       303.476100        -2.614640       247.693800      -124.573300        59.960220         0.031815
1643124136.0000    256668.300000        62.772070    258486.500000       -57.331680    257847.500000      -177.382500       271.904700       105.935100       303.070200       -16.576050       246.683200      -138.412000        59.960970        -0.038452
1643124137.0000    256588.000000        48.688780    258428.000000       -71.393980    257847.800000       168.539800       271.510900        91.966130       302.575600       -30.590820       246.397400      -152.389700        59.960910        -0.031586
1643124138.0000    256729.100000        35.264200    258588.300000       -84.817220    257995.800000       155.110200       272.607100        78.465770       302.922000       -44.263450       246.606600      -165.822000        59.964940        -0.001831
1643124139.0000    256698.100000        22.508650    258507.700000       -97.589420    257874.900000       142.360200       271.853300        64.868280       302.723700       -57.312140       247.003900      -179.344100        59.968780         0.139618
1643124140.0000    256616.400000         9.910400    258429.500000      -110.164700    257888.600000       129.763700       271.768800        53.067090       303.995200       -69.456530       246.699800       168.462400        59.968010         0.072784
1643124141.0000    256700.700000        -2.078310    258503.400000      -122.202300    257777.100000       117.762600       272.572400        40.314660       302.790500       -81.802890       248.002500       156.075300        59.966830         0.090408
1643124142.0000    256713.000000       -13.857990    258504.500000      -133.946600    257941.800000       106.000200       271.804400        28.867320       303.934600       -93.534550       247.266800       144.350800        59.967820         0.008698
1643124143.0000    256804.300000       -25.015250    258600.800000      -145.097800    258038.200000        94.845820       270.850600        17.842070       302.164400      -104.500700       246.529100       133.557200        59.969790        -0.039368
1643124144.0000    256821.700000       -35.521950    258531.300000      -155.635000    257895.800000        84.341670       270.689900         7.184141       301.593600      -114.721700       247.268500       123.201000        59.970500         0.004349
1643124145.0000    256580.300000       -45.675590    258283.200000      -165.763700    257734.500000        74.199370       271.036000        -2.366002       303.553800      -124.709700       247.780100       113.155000        59.973370         0.050812
1643124146.0000    256444.700000       -55.383260    257976.400000      -175.449000    257619.200000        64.538220       271.151900       -11.559040       306.363500      -133.844700       249.941500       103.533800        59.970420         0.026321
1643124147.0000    256768.700000       -64.873280    258530.300000       175.029000    257913.700000        54.984420       272.740800       -22.136780       303.782800      -144.501700       247.556800        93.604340        59.972720        -0.043488
1643124148.0000    256653.300000       -74.326320    258277.100000       165.567300    257703.900000        45.552440       271.530800       -31.204620       304.318200      -153.559300       247.241700        84.348820        59.977220         0.147400
1643124149.0000    256640.100000       -83.344440    258392.300000       156.559100    257787.200000        36.516010       272.713800       -40.376840       304.758800      -162.941500       247.363600        75.110550        59.975260         0.038452
1643124150.0000    256885.700000       -91.813930    258561.100000       148.083000    257975.800000        28.057130       272.866500       -49.773490       303.741500      -171.875300       249.023100        65.970580        59.977760         0.002975
1643124151.0000    256876.700000       -99.339540    258627.600000       140.565900    258052.000000        20.523890       272.840500       -57.475450       303.574400      -179.672500       248.487900        58.349250        59.982500         0.103684
1643124152.0000    256819.800000      -106.325200    258621.900000       133.580900    258024.200000        13.529790       273.480700       -63.959880       305.397700       173.549400       248.351000        51.632800        59.981950         0.002747
1643124153.0000    256469.400000      -112.780900    258447.400000       127.150000    257838.000000         7.048144       274.121500       -69.867230       306.087300       167.043300       247.282100        45.273800        59.983210         0.026779
1643124154.0000    256741.300000      -118.640200    258553.000000       121.255100    257896.400000         1.208918       272.510200       -76.208490       303.976000       161.325000       247.614300        39.347150        59.983440        -0.003891
1643124155.0000    256804.200000      -123.698200    258507.400000       116.212500    257978.800000        -3.823738       272.079300       -81.045790       304.477300       156.501800       247.752000        34.416160        59.986360        -0.052414
1643124156.0000    256707.900000      -127.917400    258531.600000       112.006700    257985.800000        -8.061395       272.180500       -84.795040       303.482000       152.481000       246.446700        30.591880        59.985320        -0.157013
1643124157.0000    256832.800000      -131.830100    258549.500000       108.097100    258048.600000       -11.947370       272.220800       -88.953060       304.781100       148.596300       247.867800        26.355780        59.991580         0.100021
1643124158.0000    256807.500000      -135.219200    258567.200000       104.691900    258014.300000       -15.354460       273.075700       -92.559500       304.122700       145.082600       248.111300        23.016640        59.990430        -0.095673
1643124159.0000    256757.600000      -137.619900    258668.400000       102.300400    258059.100000       -17.778690       272.239700       -94.933530       303.429700       142.324100       246.254000        20.582980        59.996140         0.094070
1643124160.0000    256833.600000      -139.402700    258641.200000       100.507600    258042.700000       -19.548140       272.030700       -96.524150       303.512100       140.898600       246.128300        18.887620        59.996250        -0.005264
1643124161.0000    256669.800000      -140.369400    258432.500000        99.565940    257971.700000       -20.500370       271.790800       -97.540940       305.416100       139.802100       246.644500        17.569930        59.998130         0.026550
1643124162.0000    256577.100000      -140.905300    258443.800000        99.031570    257947.000000       -21.049840       272.486800       -97.799360       305.894400       139.223300       245.980300        17.081590        59.999150         0.008469
1643124163.0000    256301.800000      -141.034200    258175.300000        98.884800    257584.800000       -21.192870       273.767900       -97.428100       305.453000       139.441600       246.069800        17.689130        60.002010         0.098648
1643124164.0000    256685.700000      -141.018100    258458.200000        98.881590    257825.400000       -21.167560       271.516100       -98.036000       302.818800       139.474200       246.488800        17.596080        60.000240         0.064545
1643124165.0000    256700.900000      -141.015300    258565.400000        98.889610    257907.600000       -21.177660       271.074200       -98.705500       302.153300       138.726400       245.222500        16.864800        59.999810        -0.023117
1643124166.0000    256586.800000      -141.416200    258386.600000        98.518960    257881.400000       -21.553690       272.338300       -98.710190       304.262500       138.471900       246.292300        16.466250        59.998600         0.028381
1643124167.0000    256580.900000      -142.381700    258472.400000        97.533420    257856.500000       -22.540510       271.926300      -100.135600       304.614300       137.355100       246.568100        15.060560        59.998000         0.054703
1643124168.0000    256810.100000      -143.539800    258678.600000        96.366500    258021.300000       -23.702840       271.350500      -101.171300       303.054800       136.078300       245.571600        14.082270        59.995480        -0.091324
1643124169.0000    256684.800000      -145.491900    258562.100000        94.440780    258012.900000       -25.642110       271.404800      -103.020100       303.502700       134.216900       245.552900        11.993230        59.994460         0.075073
1643124170.0000    256578.100000      -148.051500    258409.200000        91.879020    257879.100000       -28.189680       270.562700      -105.049300       303.320100       132.139800       245.226900         9.926737        59.989090        -0.094299
1643124171.0000    256537.100000      -151.250300    258391.900000        88.657230    257768.000000       -31.408080       271.639000      -108.664500       304.462500       128.881100       247.901800         6.638061        59.989800         0.016708
1643124172.0000    256700.600000      -155.165400    258504.500000        84.737230    257883.900000       -35.317110       272.700900      -113.105700       303.896200       124.445600       247.873500         2.486219        59.988530         0.048065
1643124173.0000    256470.800000      -159.973100    258372.200000        79.967610    257858.000000       -40.119790       273.464600      -117.110200       306.581200       120.025800       247.447800        -2.231292        59.984290        -0.028839
1643124174.0000    256499.400000      -165.871900    258306.100000        74.048050    257766.400000       -46.017230       273.055300      -123.510700       306.003400       113.708500       247.222300        -8.527016        59.981840         0.056992
1643124175.0000    256524.000000      -172.473500    258347.500000        67.452820    257802.400000       -52.616110       272.229200      -129.627100       305.629800       107.671800       246.759000       -14.579340        59.981710         0.004349
1643124176.0000    256278.500000      -179.974300    258166.300000        59.979090    257728.600000       -60.114150       273.307600      -136.531300       306.330300       100.451000       246.494100       -21.444370        59.977250        -0.141449
1643124177.0000    256684.100000       172.274600    258418.300000        52.195690    257896.700000       -67.851430       271.178500      -144.760100       304.655700        92.327100       246.234900       -29.887270        59.976880         0.047836
1643124178.0000    256555.400000       164.274600    258267.800000        44.202680    257782.700000       -75.842190       272.129700      -153.422700       305.992600        84.130900       248.609200       -38.379520        59.980570         0.180130
1643124179.0000    256460.200000       155.510200    258370.800000        35.441170    257808.700000       -84.645820       272.914200      -161.983700       305.532200        75.274220       246.754900       -46.806480        59.975120         0.013046
