Terminal: LT 440  AGUA VERMELHA - ILHA SOLTEIRA C1
Tensão base: 440 kV
SOC inicial: 1643124120
SOC final: 1643124179
Taxa: 1 fasores/s
Total de frames faltantes: - 

Tempo_(SOC)           VA_mod_(V)     VA_ang_(graus)     VB_mod_(V)     VB_ang_(graus)     VC_mod_(V)     VC_ang_(graus)     IA_mod_(A)     IA_ang_(graus)     IB_mod_(A)     IB_ang_(graus)     IC_mod_(A)     IC_ang_(graus)     Frequência        Delta_Freq     Faltante
1643124120.0000    258602.100000       -75.648100    258653.000000       163.883900    255732.800000        44.111800       788.361600       -62.387610       844.454300       172.619100       784.583800        49.448100        59.974280        -0.020599
1643124121.0000    258565.900000       -84.742390    258651.400000       154.787000    255713.100000        35.004000       788.045500       -71.443470       843.964000       163.548700       784.079800        40.374760        59.974320        -0.014420
1643124122.0000    258545.400000       -94.180730    258602.600000       145.357500    255695.200000        25.588820       789.809100       -80.859300       846.302600       154.148100       786.158800        30.944850        59.973720         0.026321
1643124123.0000    258604.300000      -104.206700    258707.800000       135.318300    255720.800000        15.540790       788.552100       -90.908890       844.834700       144.067000       784.956000        20.875910        59.972370         0.008926
1643124124.0000    258636.800000      -114.415500    258711.700000       125.119300    255782.400000         5.342148       787.744000      -101.164600       844.175400       133.857200       783.996200        10.658990        59.971630         0.037766
1643124125.0000    258605.100000      -125.124900    258674.100000       114.404200    255735.000000        -5.364060       787.636000      -111.868800       843.823200       123.128200       783.721000        -0.055231        59.969570         0.027466
1643124126.0000    258542.300000      -136.281300    258655.100000       103.239900    255667.500000       -16.536750       790.184800      -123.032300       846.361600       111.946800       786.078900       -11.226840        59.967430        -0.021515
1643124127.0000    258655.000000      -147.908300    258684.300000        91.620520    255756.500000       -28.149790       788.579900      -134.658600       844.801600       100.348500       784.728000       -22.862090        59.967970        -0.014191
1643124128.0000    258597.000000      -159.158200    258634.000000        80.386920    255747.500000       -39.388630       789.475400      -145.848100       845.717300        89.139650       785.652500       -34.033970        59.968910        -0.030212
1643124129.0000    258594.600000      -170.577100    258682.000000        68.944990    255711.100000       -50.830610       791.259300      -157.290000       847.597100        77.673970       787.408600       -45.492880        59.969350         0.094299
1643124130.0000    258574.400000       178.012000    258715.800000        57.546860    255761.000000       -62.240880       790.823900      -168.681400       847.292800        66.290210       786.975300       -56.880370        59.970040         0.053329
1643124131.0000    258423.800000       166.471300    258563.100000        45.998060    255571.500000       -73.781050       791.196800       179.741300       847.760600        54.739400       787.425000       -68.451070        59.965100        -0.115585
1643124132.0000    258495.700000       154.196500    258585.500000        33.717290    255597.800000       -86.058070       793.865800       167.426000       850.494300        42.434560       790.002700       -80.763620        59.964780        -0.010757
1643124133.0000    258576.300000       141.229800    258673.200000        20.754050    255697.500000       -99.022350       792.053600       154.488100       848.967600        29.478570       787.960600       -93.728130        59.963180        -0.008240
1643124134.0000    258498.600000       127.683900    258584.400000         7.200527    255587.600000      -112.573100       790.401200       140.946200       846.915400        15.919900       786.283800      -107.264200        59.960750         0.009384
1643124135.0000    258582.200000       113.371700    258633.200000        -7.105024    255693.300000      -126.873000       792.264300       126.663100       848.705500         1.612959       788.079300      -121.569500        59.959230         0.005951
1643124136.0000    258560.000000        98.916090    258635.000000       -21.559050    255666.700000      -141.328200       791.627400       112.132600       848.316700       -12.868400       787.923200      -136.049300        59.961080         0.029526
1643124137.0000    258540.100000        84.878470    258633.000000       -35.595610    255664.500000      -155.368500       792.958700        98.158300       849.871500       -26.862030       789.303800      -150.060500        59.961650        -0.014648
1643124138.0000    258538.800000        71.468680    258649.000000       -49.005840    255662.500000      -168.780800       793.310200        84.805790       850.152300       -40.194570       789.348200      -163.408700        59.964050         0.034332
1643124139.0000    258522.700000        58.713910    258599.200000       -61.759690    255646.000000       178.468400       793.883500        72.083300       851.049400       -52.951190       789.547200      -176.135300        59.966000         0.111008
1643124140.0000    258529.200000        46.147290    258621.100000       -74.320260    255677.800000       165.903700       795.279300        59.393860       852.182300       -65.587330       791.425700       171.212500        59.966080         0.033646
1643124141.0000    258532.500000        34.120540    258578.700000       -86.356960    255600.900000       153.878800       793.396900        47.439500       849.932500       -77.575580       789.182900       159.234800        59.966700         0.029068
1643124142.0000    258498.100000        22.368210    258585.500000       -98.102210    255643.800000       142.124500       793.194600        35.689300       849.887400       -89.344960       788.963200       147.462400        59.966670        -0.049896
1643124143.0000    258527.900000        11.194650    258610.200000      -109.277400    255644.900000       130.949900       793.955000        24.523860       850.852100      -100.481400       790.103300       136.322000        59.969660        -0.014420
1643124144.0000    258564.900000         0.681759    258579.600000      -119.790500    255649.700000       120.449700       792.723200        14.006480       849.577000      -111.015500       788.678100       125.810300        59.970780        -0.031357
1643124145.0000    258490.800000        -9.387416    258530.400000      -129.856200    255609.900000       110.377400       794.964900         3.907394       851.759900      -121.101500       790.888600       115.709300        59.971460        -0.045547
1643124146.0000    258471.100000       -19.085320    258491.100000      -139.541000    255619.500000       100.691700       795.093800        -5.768476       851.547900      -130.801400       790.659300       106.057700        59.973120         0.004578
1643124147.0000    258527.300000       -28.621040    258591.400000      -149.093000    255626.600000        91.142480       795.345900       -15.363200       852.745800      -140.360400       791.679000        96.438640        59.973930         0.021973
1643124148.0000    258536.300000       -38.080250    258539.500000      -158.550600    255631.800000        81.689770       793.771000       -24.815780       850.430700      -149.837500       789.836100        86.989270        59.975560         0.059052
1643124149.0000    258531.300000       -47.093930    258573.600000      -167.569900    255636.400000        72.665640       794.177700       -33.848660       851.209100      -158.844500       790.457200        77.946410        59.975670         0.044861
1643124150.0000    258599.200000       -55.623940    258634.400000      -176.095800    255699.200000        64.142110       792.856100       -42.336830       849.689200      -167.371800       788.915700        69.457770        59.977910         0.049896
1643124151.0000    258588.000000       -63.135520    258630.900000       176.391100    255691.200000        56.620990       792.516700       -49.820030       849.213900      -174.837600       788.594300        61.977110        59.980320         0.044861
1643124152.0000    258541.700000       -70.131720    258612.100000       169.392300    255647.800000        49.620240       791.634900       -56.820370       848.197100       178.180100       787.675800        54.978670        59.982030         0.026321
1643124153.0000    258484.800000       -76.487270    258592.000000       163.031400    255605.400000        43.256210       794.678100       -63.199370       851.765900       171.792200       791.137200        48.612150        59.982520         0.014420
1643124154.0000    258588.700000       -82.482040    258629.700000       157.041500    255682.100000        37.278360       790.435600       -69.184780       847.086400       165.794100       786.516400        42.628230        59.984330        -0.039825
1643124155.0000    258599.600000       -87.502100    258643.600000       152.025800    255686.600000        32.256240       794.551200       -74.245200       851.359100       160.749300       790.577500        37.572550        59.987380         0.028381
1643124156.0000    258565.900000       -91.777950    258648.200000       147.751200    255709.300000        27.977480       790.536100       -78.479460       846.604600       156.517500       786.262600        33.328270        59.987660        -0.095215
1643124157.0000    258565.700000       -95.608120    258646.900000       143.924500    255703.200000        24.152960       795.297600       -82.354020       852.059000       152.631900       791.029600        29.440320        59.989670         0.057220
1643124158.0000    258601.100000       -99.071310    258655.500000       140.456100    255709.500000        20.684630       791.780700       -85.812150       848.673200       149.158800       788.191800        25.991960        59.992080        -0.018539
1643124159.0000    258548.900000      -101.434600    258646.000000       138.092100    255678.500000        18.313520       792.586400       -88.150090       849.236100       146.841400       788.621600        23.629790        59.994300         0.017624
1643124160.0000    258564.300000      -103.227200    258609.100000       136.297600    255664.200000        16.529920       793.149000       -89.895640       849.729600       145.105800       789.173600        21.911520        59.996660         0.040512
1643124161.0000    258531.500000      -104.129900    258608.200000       135.401900    255671.100000        15.624890       791.867900       -90.878200       848.190000       144.126200       787.828400        20.953080        59.997430        -0.018539
1643124162.0000    258535.600000      -104.690400    258624.800000       134.834200    255650.200000        15.060340       791.740800       -91.448720       847.918100       143.554400       787.632900        20.378500        59.998830        -0.005722
1643124163.0000    258446.500000      -104.694200    258490.800000       134.830600    255533.300000        15.059810       795.263100       -91.445380       852.225700       143.557100       791.615700        20.368710        60.000060         0.008698
1643124164.0000    258564.200000      -104.775900    258611.000000       134.744200    255649.500000        14.976440       792.199300       -91.540530       849.074200       143.461900       788.337800        20.267000        59.999830        -0.012589
1643124165.0000    258565.900000      -104.795500    258630.600000       134.725800    255666.500000        14.952480       790.734400       -91.584140       847.374800       143.404000       786.749800        20.196700        59.999810         0.023804
1643124166.0000    258496.000000      -105.156800    258592.200000       134.377300    255650.600000        14.597620       792.647000       -91.933330       849.316400       143.070900       788.584100        19.898830        59.997870        -0.007324
1643124167.0000    258532.500000      -106.087100    258589.400000       133.430000    255602.700000        13.660310       795.710000       -92.952660       852.141100       142.078600       791.475800        18.893840        59.997350         0.032043
1643124168.0000    258589.700000      -107.370300    258676.800000       132.153200    255709.600000        12.379730       789.549100       -94.165840       845.745700       140.820200       785.519600        17.647230        59.996050        -0.008469
1643124169.0000    258513.900000      -109.253200    258607.300000       130.271700    255651.600000        10.495100       792.276900       -96.068310       848.889300       138.951300       788.353400        15.766780        59.993510         0.036163
1643124170.0000    258532.200000      -111.845900    258602.600000       127.680200    255648.900000         7.907605       790.398100       -98.673230       846.770300       136.326300       786.437400        13.148390        59.991070        -0.053558
1643124171.0000    258515.300000      -114.998800    258564.900000       124.517700    255606.000000         4.752838       793.142000      -101.818500       849.230500       133.184500       788.996900        10.014290        59.989760        -0.030670
1643124172.0000    258545.700000      -118.932300    258598.700000       120.585300    255623.700000         0.822205       792.680500      -105.706400       849.302200       129.312400       788.446800         6.105635        59.988420         0.043716
1643124173.0000    258457.600000      -123.668200    258583.000000       115.855700    255602.600000        -3.924848       792.948700      -110.482000       849.588400       124.509800       789.102500         1.342105        59.984850        -0.022202
1643124174.0000    258454.800000      -129.535200    258513.200000       109.988200    255556.500000        -9.783599       795.106100      -116.317600       851.478900       118.696000       790.844400        -4.506184        59.980890        -0.052414
1643124175.0000    258462.600000      -136.174400    258550.300000       103.348200    255585.800000       -16.426860       793.909500      -122.932100       850.193800       112.044000       789.931700       -11.120400        59.981280         0.003433
1643124176.0000    258451.000000      -143.685100    258538.500000        95.843410    255578.000000       -23.932440       794.670500      -130.509200       851.341400       104.511500       791.068800       -18.672410        59.979990         0.016708
1643124177.0000    258546.100000      -151.485400    258596.500000        88.041660    255656.100000       -31.726860       792.824000      -138.243100       848.982100        96.743380       788.879900       -26.409480        59.978210         0.024948
1643124178.0000    258486.100000      -159.435200    258525.700000        80.099310    255629.000000       -39.670300       796.062900      -146.167800       852.988200        88.829800       792.135600       -34.368620        59.977970         0.025635
1643124179.0000    258476.400000      -168.169400    258575.800000        71.354640    255602.700000       -48.421900       795.112500      -154.942800       852.343400        80.060600       791.758500       -43.146470        59.974160        -0.002975
