Terminal: LT 440  AGUA VERMELHA - RIBEIRAOPRETO C1
Tensão base: 440 kV
SOC inicial: 1643124120
SOC final: 1643124179
Taxa: 1 fasores/s
Total de frames faltantes: - 

Tempo_(SOC)           VA_mod_(V)     VA_ang_(graus)     VB_mod_(V)     VB_ang_(graus)     VC_mod_(V)     VC_ang_(graus)     IA_mod_(A)     IA_ang_(graus)     IB_mod_(A)     IB_ang_(graus)     IC_mod_(A)     IC_ang_(graus)     Frequência        Delta_Freq     Faltante
1643124120.0000    258746.500000       -75.665530    258835.100000       163.863000    255986.600000        44.135170       529.140400       -55.166200       526.531700      -176.558700       529.437400        63.422350        59.974890         0.008240
1643124121.0000    258683.400000       -84.765330    258846.100000       154.767800    255961.900000        35.030400       527.981900       -64.279090       525.616800       174.347900       528.994300        54.281070        59.974670        -0.004807
1643124122.0000    258689.800000       -94.200100    258773.200000       145.339000    255953.800000        25.611480       529.520300       -73.757260       526.633000       164.812200       529.666400        44.861600        59.973750         0.022202
1643124123.0000    258739.000000      -104.229400    258891.900000       135.297500    255984.600000        15.565830       529.102500       -83.704990       526.946400       154.943700       529.795000        34.908190        59.972300        -0.002747
1643124124.0000    258775.100000      -114.435300    258898.900000       125.099500    256036.300000         5.368382       530.033000       -93.913860       527.216400       144.720900       530.418500        24.668030        59.971400         0.026093
1643124125.0000    258743.900000      -125.141700    258849.000000       114.386600    255994.000000        -5.339582       528.760900      -104.587300       526.689600       133.986200       529.483000        13.971530        59.969870         0.027237
1643124126.0000    258692.200000      -136.300700    258832.800000       103.220200    255926.800000       -16.508570       528.632800      -115.886800       526.500100       122.725500       529.449600         2.666312        59.967450        -0.022430
1643124127.0000    258780.000000      -147.929500    258858.000000        91.600850    256015.500000       -28.123830       528.390200      -127.389800       526.035600       111.187500       528.512900        -8.809200        59.967600        -0.030899
1643124128.0000    258718.500000      -159.178700    258821.900000        80.366330    256015.000000       -39.360860       529.556500      -138.686400       526.295500        99.903690       529.346700       -20.083800        59.969170        -0.021286
1643124129.0000    258742.900000      -170.598600    258873.900000        68.926070    255976.700000       -50.801500       528.408600      -150.094800       526.183700        88.499300       529.038000       -31.550110        59.968980         0.078049
1643124130.0000    258716.400000       177.993900    258890.500000        57.526480    256007.300000       -62.213570       528.433900      -161.544700       525.879800        77.133590       529.764600       -42.920430        59.970520         0.077362
1643124131.0000    258574.200000       166.453900    258731.700000        45.978350    255827.800000       -73.755580       528.333200      -173.278800       526.300900        65.326870       529.029600       -54.703880        59.965180        -0.114899
1643124132.0000    258619.400000       154.173800    258760.900000        33.698810    255879.700000       -86.031660       528.399900       174.396200       525.987500        52.988410       528.910300       -67.044270        59.964580        -0.029755
1643124133.0000    258700.600000       141.209600    258853.200000        20.733180    255957.200000       -98.996230       528.088600       161.525900       526.006500        40.177360       529.168900       -79.905440        59.963430         0.006638
1643124134.0000    258632.000000       127.666200    258762.600000         7.181267    255849.200000      -112.544600       528.776700       147.948200       526.956400        26.559770       529.599800       -93.569940        59.960990         0.018997
1643124135.0000    258714.100000       113.351400    258824.000000        -7.124403    255945.000000      -126.848400       528.753100       133.725500       526.231800        12.268170       529.106100      -107.726500        59.959150        -0.001602
1643124136.0000    258713.100000        98.899830    258816.400000       -21.578600    255931.500000      -141.301200       528.513500       119.266200       526.611000        -2.157976       529.085500      -122.220000        59.961220         0.031815
1643124137.0000    258670.700000        84.859420    258802.800000       -35.615750    255928.800000      -155.343200       528.226800       105.136100       525.972600       -16.235630       529.067400      -136.333600        59.961320        -0.024719
1643124138.0000    258682.200000        71.449510    258837.200000       -49.024760    255932.800000      -168.756000       528.515600        91.768480       526.404200       -29.607160       529.311500      -149.703400        59.963980         0.029068
1643124139.0000    258663.000000        58.695950    258774.000000       -61.779040    255901.900000       178.494500       528.850200        78.967540       526.450700       -42.461210       529.502700      -162.474600        59.966120         0.101852
1643124140.0000    258669.200000        46.128700    258798.300000       -74.339360    255942.000000       165.929200       528.980600        66.361470       526.493900       -55.036270       529.464900      -175.089200        59.966400         0.017166
1643124141.0000    258652.400000        34.101200    258746.000000       -86.379280    255875.100000       153.905700       528.875000        54.382840       526.709900       -67.046970       529.397300       172.893300        59.966920         0.047607
1643124142.0000    258661.300000        22.347760    258765.700000       -98.123960    255886.500000       142.150700       528.964800        42.545190       526.640900       -78.841240       529.639800       161.151400        59.967490        -0.013275
1643124143.0000    258679.200000        11.173300    258779.100000      -109.297200    255918.100000       130.977800       529.310000        31.447280       526.809400       -89.940500       529.676300       150.017300        59.969470        -0.017395
1643124144.0000    258696.900000         0.660760    258743.500000      -119.808800    255901.900000       120.477400       529.134600        20.960300       526.856600      -100.482200       529.554200       139.512400        59.971210        -0.020599
1643124145.0000    258631.300000        -9.407825    258709.200000      -129.874500    255871.300000       110.403600       529.527800        10.711840       526.634600      -110.680400       529.862900       129.326400        59.971610        -0.042343
1643124146.0000    258606.800000       -19.101610    258647.300000      -139.561100    255876.500000       100.716700       528.852500         1.069659       525.895800      -120.365900       528.764200       119.707000        59.972930         0.003891
1643124147.0000    258672.900000       -28.639010    258754.800000      -149.113300    255895.000000        91.168370       529.401200        -8.402163       526.835000      -129.825000       529.334400       110.179800        59.974150         0.039825
1643124148.0000    258688.800000       -38.098040    258724.300000      -158.570600    255890.700000        81.714450       528.998400       -17.831100       526.311100      -139.302000       528.887300       100.701400        59.975500         0.058594
1643124149.0000    258671.200000       -47.116320    258744.200000      -167.586900    255889.300000        72.692480       528.937800       -26.865380       526.254300      -148.272500       529.120900        91.720760        59.975820         0.033646
1643124150.0000    258744.000000       -55.638990    258810.300000      -176.117000    255957.500000        64.165890       528.670300       -35.221490       525.865600      -156.679000       528.640900        83.343240        59.977410         0.021973
1643124151.0000    258732.500000       -63.156060    258825.600000       176.369600    255941.300000        56.648780       529.479200       -42.796180       526.895000      -164.205900       529.797200        75.771830        59.980250         0.051270
1643124152.0000    258675.100000       -70.151660    258788.000000       169.373100    255914.300000        49.647010       528.541100       -49.785070       525.976900      -171.175200       529.156800        68.797970        59.982190         0.035019
1643124153.0000    258622.600000       -76.507740    258766.400000       163.011100    255847.600000        43.283250       528.992200       -56.318930       527.115000      -177.641100       530.442900        62.260930        59.982430         0.012589
1643124154.0000    258730.500000       -82.499790    258809.800000       157.019600    255943.500000        37.302470       527.798700       -62.068890       525.532700       176.478900       528.218500        56.501230        59.984010        -0.043488
1643124155.0000    258722.000000       -87.521450    258816.600000       152.004500    255967.700000        32.282620       528.686500       -67.183750       526.459100       171.421400       529.201500        51.388550        59.987630         0.051041
1643124156.0000    258702.000000       -91.794300    258824.700000       147.731900    255936.900000        28.002370       528.237400       -71.341270       526.007100       167.243000       529.311700        47.218540        59.987990        -0.079651
1643124157.0000    258710.400000       -95.626720    258806.500000       143.905000    255969.600000        24.178920       529.687500       -75.308060       526.750800       163.292500       530.016800        43.326990        59.989720         0.058365
1643124158.0000    258734.600000       -99.092860    258842.800000       140.432700    255973.000000        20.707500       527.549700       -78.644820       524.925500       159.985500       528.354300        39.960620        59.992190        -0.006409
1643124159.0000    258692.100000      -101.453100    258834.500000       138.071500    255945.300000        18.340520       529.241400       -81.038050       526.933400       157.567200       530.389000        37.507690        59.994360         0.032043
1643124160.0000    258693.600000      -103.246900    258804.700000       136.275800    255905.300000        16.554190       528.622300       -82.796360       526.197600       155.784000       529.108100        35.738730        59.996570         0.039825
1643124161.0000    258665.100000      -104.149300    258783.600000       135.379000    255916.000000        15.652430       529.861100       -83.884770       527.121300       154.771700       530.226500        34.760570        59.997340        -0.007095
1643124162.0000    258662.900000      -104.711000    258817.500000       134.817200    255906.300000        15.085760       528.088700       -84.342300       525.781400       154.292800       528.836500        34.224590        59.999060        -0.014877
1643124163.0000    258571.000000      -104.713500    258692.600000       134.810800    255795.800000        15.084070       529.156800       -84.565590       526.650800       154.042300       529.385100        34.047960        59.999560        -0.027008
1643124164.0000    258703.800000      -104.798100    258806.600000       134.720400    255901.100000        15.002550       528.243200       -84.407900       525.834200       154.146300       528.690400        34.118700        59.999480        -0.014191
1643124165.0000    258708.000000      -104.817600    258825.300000       134.702800    255936.800000        14.979780       529.058800       -84.437130       526.791600       154.153200       529.851700        34.112150        59.999300         0.005722
1643124166.0000    258634.700000      -105.174700    258783.600000       134.356800    255900.900000        14.623630       527.734900       -84.854490       525.546400       153.742800       528.753500        33.722720        59.998150        -0.006409
1643124167.0000    258672.000000      -106.105000    258769.700000       133.411300    255864.100000        13.689930       528.777000       -85.817050       526.588400       152.749200       529.747300        32.716860        59.997580         0.031128
1643124168.0000    258732.700000      -107.389600    258870.600000       132.130400    255964.000000        12.406040       528.756700       -86.935070       526.655200       151.689900       529.487700        31.630660        59.995830        -0.005493
1643124169.0000    258671.200000      -109.272600    258807.000000       130.254100    255906.300000        10.521070       529.362900       -88.960960       527.156800       149.709700       530.526300        29.644220        59.993450         0.036163
1643124170.0000    258680.800000      -111.865300    258792.100000       127.661500    255911.800000         7.933039       528.359700       -91.497270       525.956300       147.083300       528.781400        27.070420        59.991320        -0.036850
1643124171.0000    258649.100000      -115.017000    258773.100000       124.501500    255858.000000         4.778672       528.861100       -94.776710       526.794400       143.815200       529.402100        23.753940        59.990400        -0.013962
1643124172.0000    258686.700000      -118.954200    258794.500000       120.563800    255876.100000         0.846690       528.682800       -98.633720       526.830100       139.904800       529.221300        19.877520        59.988460         0.037994
1643124173.0000    258614.000000      -123.689300    258763.300000       115.834200    255860.400000        -3.899243       529.387100      -103.531100       527.231200       135.124800       530.488000        15.029810        59.984900        -0.022202
1643124174.0000    258585.300000      -129.557900    258696.500000       109.968600    255804.400000        -9.756914       528.583900      -109.396200       526.427200       129.239000       529.442900         9.188371        59.981070        -0.040283
1643124175.0000    258604.600000      -136.195600    258735.300000       103.329700    255831.000000       -16.399270       528.203100      -115.963500       526.130800       122.635900       529.408600         2.590189        59.981350        -0.001831
1643124176.0000    258585.100000      -143.702200    258728.300000        95.825300    255830.100000       -23.906410       527.588100      -123.433500       524.851900       115.144700       527.953600        -4.906540        59.979840        -0.006409
1643124177.0000    258685.300000      -151.506000    258769.900000        88.021710    255902.000000       -31.699030       529.088200      -131.156700       526.658000       107.413800       529.562000       -12.619890        59.977880         0.010071
1643124178.0000    258630.200000      -159.450400    258726.600000        80.082120    255868.900000       -39.647490       528.554600      -139.213200       525.773600        99.351040       528.340300       -20.618980        59.978000         0.021744
1643124179.0000    258622.500000      -168.190200    258754.900000        71.335000    255853.900000       -48.393850       528.413100      -147.981500       526.587200        90.582070       529.272200       -29.453290        59.974370         0.006180
