Terminal: LT 440  AGUA VERMELHA - ARARAQUARA CTP C1
Tensão base: 440 kV
SOC inicial: 1643124120
SOC final: 1643124179
Taxa: 1 fasores/s
Total de frames faltantes: - 

Tempo_(SOC)           VA_mod_(V)     VA_ang_(graus)     VB_mod_(V)     VB_ang_(graus)     VC_mod_(V)     VC_ang_(graus)     IA_mod_(A)     IA_ang_(graus)     IB_mod_(A)     IB_ang_(graus)     IC_mod_(A)     IC_ang_(graus)     Frequência        Delta_Freq     Faltante
1643124120.0000    258996.900000       -75.701890    258381.700000       163.835200    256357.800000        44.111500       807.222700       -66.584100       802.183300       173.812000       824.217500        53.774860        59.974330        -0.012360
1643124121.0000    258954.800000       -84.801820    258384.600000       154.737300    256337.900000        35.003010       806.059900       -75.672750       801.367300       164.760000       824.396700        44.676670        59.974780         0.003204
1643124122.0000    258956.600000       -94.232920    258327.800000       145.309700    256335.500000        25.588980       808.011400       -85.142850       802.720800       155.226400       825.091700        35.231320        59.973540         0.008240
1643124123.0000    258999.900000      -104.261300    258428.100000       135.269400    256379.000000        15.543120       806.857700       -95.071550       802.418700       145.365900       825.071100        25.260700        59.971840        -0.017853
1643124124.0000    259030.000000      -114.469900    258446.900000       125.069600    256417.400000         5.341768       807.139400      -105.299000       802.308700       135.130000       824.878700        15.060540        59.971100         0.023804
1643124125.0000    259014.200000      -125.177800    258395.900000       114.359400    256373.600000        -5.363791       806.338100      -115.986100       801.906900       124.410900       824.027200         4.330093        59.969800         0.026093
1643124126.0000    258964.000000      -136.335700    258383.300000       103.193100    256322.100000       -16.534380       806.980800      -127.274500       802.983300       113.152700       825.200200        -6.959324        59.967310        -0.023117
1643124127.0000    259042.200000      -147.963000    258404.300000        91.571110    256392.600000       -28.147880       806.379000      -138.788700       802.017000       101.612200       823.736900       -18.457410        59.967700        -0.026321
1643124128.0000    258994.400000      -159.213100    258367.900000        80.336800    256397.000000       -39.388240       807.473000      -150.070600       802.141400        90.329390       824.415800       -29.690240        59.968680        -0.039597
1643124129.0000    259003.400000      -170.634400    258420.200000        68.896620    256352.500000       -50.825400       807.157600      -161.505000       802.617900        78.913100       825.218700       -41.179870        59.969200         0.095215
1643124130.0000    258992.400000       177.961000    258443.400000        57.499530    256397.600000       -62.238900       806.798800      -172.904300       801.873400        67.544360       824.929600       -52.524750        59.970490         0.074387
1643124131.0000    258836.900000       166.419100    258277.300000        45.951980    256214.400000       -73.780800       807.342700       175.342900       803.086500        55.814320       825.723500       -64.307390        59.965350        -0.119476
1643124132.0000    258886.400000       154.139400    258319.100000        33.669510    256241.800000       -86.057720       808.409000       163.034300       804.201000        43.483780       826.537500       -76.632000        59.964570        -0.020142
1643124133.0000    258993.000000       141.173300    258414.000000        20.703860    256335.800000       -99.022050       807.204300       150.152900       803.145000        30.616240       825.790300       -89.493370        59.963310         0.010071
1643124134.0000    258898.200000       127.630500    258327.300000         7.155041    256231.500000      -112.572100       807.554600       136.588400       803.971700        17.026970       825.985400      -103.092700        59.960400        -0.025635
1643124135.0000    258982.000000       113.314400    258370.600000        -7.151908    256319.400000      -126.871800       807.805800       122.355600       803.428200         2.740009       825.634400      -117.301000        59.959190         0.005035
1643124136.0000    258982.900000        98.860180    258375.700000       -21.605930    256314.000000      -141.326300       807.880600       107.866200       803.425000       -11.721990       825.598400      -131.797600        59.961210         0.037079
1643124137.0000    258947.300000        84.823450    258359.100000       -35.642570    256303.800000      -155.367600       808.211500        93.763170       803.531900       -25.803050       826.102500      -145.883700        59.961630        -0.012589
1643124138.0000    258955.200000        71.412570    258369.900000       -49.053380    256315.500000      -168.781500       808.957000        80.402570       804.532400       -39.175090       827.079400      -159.247800        59.963850         0.017853
1643124139.0000    258937.300000        58.658280    258335.200000       -61.806760    256284.900000       178.468800       809.062300        67.622210       804.723500       -51.968530       826.771500      -172.036600        59.966180         0.101395
1643124140.0000    258952.200000        46.094020    258343.800000       -74.369540    256325.800000       165.902600       809.471300        55.003750       804.620700       -64.560080       827.400100       175.371900        59.966300         0.034332
1643124141.0000    258926.400000        34.064130    258291.300000       -86.407510    256247.600000       153.882700       808.541700        43.045880       804.406300       -76.608690       826.202300       163.338100        59.966800         0.038223
1643124142.0000    258904.700000        22.311040    258313.900000       -98.152730    256288.100000       142.125700       809.518600        31.248570       804.714700       -88.335170       826.888100       151.600100        59.967290        -0.018768
1643124143.0000    258942.500000        11.137820    258323.800000      -109.322600    256303.600000       130.950200       809.543700        20.117390       804.609700       -99.471880       827.136800       140.476200        59.970170         0.006409
1643124144.0000    258964.800000         0.625990    258298.700000      -119.837200    256284.800000       120.448700       809.239000         9.635137       804.627600      -110.018300       826.417900       129.958700        59.971320        -0.001831
1643124145.0000    258891.600000        -9.442661    258247.700000      -129.900900    256241.200000       110.377400       810.301000        -0.575124       805.057700      -120.193300       827.519800       119.800700        59.972190        -0.008698
1643124146.0000    258873.500000       -19.138640    258211.600000      -139.587800    256259.000000       100.692700       810.015700       -10.267260       804.179000      -129.902000       826.551300       110.110100        59.973250         0.010071
1643124147.0000    258941.700000       -28.673320    258304.800000      -149.140900    256265.200000        91.144230       809.828100       -19.707610       805.344000      -139.341300       827.166900       100.605300        59.973920         0.029755
1643124148.0000    258945.000000       -38.135150    258288.700000      -158.597200    256265.500000        81.689960       809.264700       -29.175290       804.401700      -148.831400       826.285000        91.157520        59.975290         0.042572
1643124149.0000    258942.100000       -47.150330    258294.600000      -167.617200    256269.700000        72.668660       809.200100       -38.214730       804.786600      -157.821900       826.613200        82.126800        59.975640         0.038910
1643124150.0000    259012.800000       -55.678200    258361.000000      -176.145800    256353.400000        64.142340       809.090800       -46.621930       804.261800      -166.265200       826.249100        73.691730        59.977590         0.041885
1643124151.0000    258987.200000       -63.188810    258370.200000       176.342900    256343.400000        56.622560       809.384000       -54.144500       804.722800      -173.768300       826.559400        66.182980        59.980220         0.044861
1643124152.0000    258956.200000       -70.187770    258350.900000       169.345200    256301.600000        49.621430       808.397400       -61.147960       804.094000       179.260000       826.262800        59.180180        59.982490         0.039368
1643124153.0000    258893.400000       -76.544870    258333.700000       162.986000    256241.100000        43.255820       809.791900       -67.649860       805.603300       172.790600       828.344700        52.675200        59.983230         0.042114
1643124154.0000    259006.400000       -82.534810    258362.200000       156.995100    256320.900000        37.277390       807.131500       -73.467080       802.928100       166.898100       824.720200        46.817840        59.984410        -0.034790
1643124155.0000    259000.900000       -87.558600    258359.200000       151.977600    256332.800000        32.257220       808.893600       -78.547310       804.072700       161.863500       826.272700        41.794290        59.987880         0.055161
1643124156.0000    258981.500000       -91.830680    258383.500000       147.703100    256327.900000        27.977080       807.070700       -82.742490       802.617900       157.692100       824.793300        37.602920        59.988560        -0.052643
1643124157.0000    258988.500000       -95.662280    258357.300000       143.877900    256345.200000        24.153550       809.622200       -86.648250       804.581800       153.750400       827.037100        33.715610        59.989910         0.059052
1643124158.0000    258992.800000       -99.128190    258392.300000       140.409100    256367.200000        20.684040       807.144200       -90.059780       802.333500       150.365300       825.091500        30.287900        59.992370        -0.013046
1643124159.0000    258956.800000      -101.489100    258379.600000       138.041200    256338.900000        18.316350       808.458400       -92.447560       803.969700       147.984500       826.563300        27.891390        59.994530         0.042801
1643124160.0000    258961.700000      -103.281800    258371.600000       136.248900    256295.800000        16.529000       808.086700       -94.214800       803.865000       146.173400       825.626600        26.110090        59.996600         0.037766
1643124161.0000    258933.500000      -104.185600    258337.500000       135.352900    256317.500000        15.627000       808.872300       -95.234820       803.913100       145.211200       826.771700        25.142020        59.997600        -0.008240
1643124162.0000    258928.200000      -104.745400    258367.900000       134.786900    256309.000000        15.057040       807.846300       -95.763190       803.445100       144.668600       826.142300        24.602100        59.999180        -0.011215
1643124163.0000    258844.300000      -104.750800    258232.200000       134.782900    256176.300000        15.059150       809.641800       -95.909740       805.278300       144.479400       827.708300        24.435050        59.999570        -0.023117
1643124164.0000    258971.900000      -104.831500    258352.700000       134.694500    256290.800000        14.978500       808.018700       -95.850740       803.817100       144.562200       825.958300        24.459150        59.999740        -0.006409
1643124165.0000    258972.600000      -104.852500    258390.600000       134.675200    256300.700000        14.954890       807.761800       -95.866490       803.579500       144.552500       825.910400        24.476530        59.999160         0.007782
1643124166.0000    258907.400000      -105.208900    258328.300000       134.327500    256280.200000        14.598730       808.341400       -96.268170       803.805400       144.171800       826.291400        24.114730        59.998290         0.019684
1643124167.0000    258932.100000      -106.141700    258329.300000       133.382800    256256.200000        13.665780       809.497700       -97.257000       805.440400       143.191700       827.576200        23.080890        59.997470         0.022659
1643124168.0000    258994.000000      -107.425000    258407.500000       132.102600    256349.000000        12.379960       807.322000       -98.361860       803.399200       142.082900       825.730300        21.963580        59.995640        -0.018311
1643124169.0000    258935.000000      -109.308000    258362.000000       130.224100    256295.300000        10.497980       808.800400      -100.335100       804.384000       140.106600       827.244800        20.016100        59.993100         0.024033
1643124170.0000    258937.100000      -111.903200    258355.200000       127.632000    256295.300000         7.907543       807.631500      -102.918600       803.144200       137.502600       825.535500        17.413190        59.991040        -0.057678
1643124171.0000    258918.200000      -115.052700    258316.100000       124.472500    256243.100000         4.754723       808.250200      -106.133400       804.304900       134.267200       826.077500        14.162020        59.990130        -0.030670
1643124172.0000    258949.200000      -118.986400    258337.600000       120.533600    256263.200000         0.822016       808.045400      -110.038900       804.558900       130.353800       826.209400        10.267590        59.987920         0.017624
1643124173.0000    258877.600000      -123.725300    258317.300000       115.805700    256244.900000        -3.925120       809.278300      -114.894800       804.950600       125.603100       827.927500         5.463145        59.985130        -0.009155
1643124174.0000    258835.800000      -129.592400    258248.300000       109.940800    256207.600000        -9.782948       810.212500      -120.756000       805.538300       119.657800       828.093100        -0.409128        59.981300        -0.035477
1643124175.0000    258867.600000      -136.231400    258297.200000       103.298800    256213.100000       -16.426720       808.878600      -127.343900       804.569000       113.096400       827.345600        -7.008263        59.981120        -0.002289
1643124176.0000    258849.300000      -143.739400    258269.100000        95.797930    256216.900000       -23.933950       808.171100      -134.876100       803.703000       105.562300       826.336700       -14.526310        59.980110         0.018311
1643124177.0000    258940.500000      -151.539100    258334.800000        87.995450    256299.200000       -31.724510       808.625800      -142.596900       804.141400        97.839780       826.439300       -22.240550        59.978450         0.025635
1643124178.0000    258894.500000      -159.486400    258280.200000        80.050700    256262.300000       -39.671550       809.095300      -150.634600       804.626600        89.775820       826.515600       -30.256830        59.977580         0.009155
1643124179.0000    258888.900000      -168.225500    258317.200000        71.306530    256238.400000       -48.421040       809.843300      -159.423000       805.481900        81.038930       828.140100       -39.062080        59.974210        -0.008926
