Terminal: LT 525  LONDRINA ESU - ASSIS C2
Tensão base: 525 kV
SOC inicial: 1643124120
SOC final: 1643124179
Taxa: 1 fasores/s
Total de frames faltantes: - 

Tempo_(SOC)           VA_mod_(V)     VA_ang_(graus)     VB_mod_(V)     VB_ang_(graus)     VC_mod_(V)     VC_ang_(graus)     IA_mod_(A)     IA_ang_(graus)     IB_mod_(A)     IB_ang_(graus)     IC_mod_(A)     IC_ang_(graus)     Frequência        Delta_Freq     Faltante
1643124120.0000    313861.900000      -103.532400    313781.100000       136.193700    312419.500000        16.253590       965.329200        80.412190       952.544100       -39.968060       960.244900      -159.215700        59.974480        -0.005951
1643124121.0000    313756.900000      -112.626400    313796.000000       127.114000    312425.800000         7.149690       965.298600        71.323310       952.523500       -49.071240       960.615600      -168.315600        59.974250        -0.049210
1643124122.0000    313761.300000      -122.073200    313652.200000       117.659400    312322.700000        -2.278670       964.574100        61.850640       952.247500       -58.551510       960.041500      -177.753500        59.972130        -0.023804
1643124123.0000    313867.600000      -132.034100    313896.900000       107.696400    312516.800000       -12.262680       962.896200        51.836860       949.400800       -68.572200       957.626300       172.224300        59.972340        -0.003891
1643124124.0000    313912.200000      -142.235100    313890.100000        97.500520    312535.500000       -22.451670       962.368300        41.652760       949.196400       -78.758270       956.946800       162.011600        59.971470         0.027008
1643124125.0000    313854.700000      -152.946700    313817.000000        86.776050    312416.800000       -33.168840       962.925600        30.930330       950.146200       -89.452530       957.828600       151.316300        59.970370         0.051041
1643124126.0000    313719.000000      -164.165100    313761.800000        75.559490    312323.800000       -44.399710       964.180500        19.770360       951.256200      -100.642600       959.190800       140.154600        59.968010        -0.028152
1643124127.0000    313860.200000      -175.759200    313790.600000        63.967020    312440.900000       -55.973930       964.782200         8.110384       951.328700      -112.254400       959.186000       128.537200        59.966650        -0.036621
1643124128.0000    313900.300000       173.026600    313824.700000        52.768180    312515.000000       -67.179390       961.458800        -3.086486       949.187300      -123.433900       957.133700       117.304400        59.968430        -0.059738
1643124129.0000    313807.900000       161.530700    313798.300000        41.253270    312382.500000       -78.695430       965.752300       -14.535790       952.950400      -134.938200       960.757900       105.833100        59.969180         0.089722
1643124130.0000    313928.300000       150.189700    313955.600000        29.931290    312599.800000       -90.033580       962.159100       -25.869240       949.588000      -146.261100       956.949800        94.515270        59.971180         0.066834
1643124131.0000    313608.800000       138.593700    313631.700000        18.320790    312224.600000      -101.638100       963.041600       -37.402510       950.782100      -157.836400       957.807400        82.943700        59.964590        -0.109406
1643124132.0000    313637.200000       126.295800    313647.300000         6.012869    312221.400000      -113.938500       963.909100       -49.713150       951.253400      -170.112700       958.004600        70.638080        59.964030        -0.035477
1643124133.0000    313724.700000       113.355000    313737.000000        -6.918746    312310.100000      -126.874700       964.228500       -62.688690       951.152500       176.886500       958.634700        57.690970        59.963950        -0.004120
1643124134.0000    313651.500000        99.815540    313691.500000       -20.469160    312214.200000      -140.421100       963.346100       -76.223340       950.253500       163.341800       957.650100        44.124530        59.959970        -0.026779
1643124135.0000    313819.000000        85.532380    313789.400000       -34.745220    312367.500000      -154.690000       962.394800       -90.534930       949.479400       149.085000       957.294600        29.851640        59.959280        -0.021515
1643124136.0000    313809.900000        71.064410    313803.100000       -49.213460    312393.200000      -169.162800       962.513400      -104.989300       949.537700       134.615800       957.748300        15.428090        59.960750         0.001373
1643124137.0000    313774.800000        56.986500    313737.400000       -63.278270    312393.000000       176.767300       963.711400      -119.003800       950.565000       120.589100       958.278200         1.392527        59.961340        -0.027924
1643124138.0000    313864.800000        43.563850    313862.100000       -76.704610    312506.500000       163.342600       964.495000      -132.382100       951.242600       107.217200       959.359600       -12.020050        59.964970         0.035934
1643124139.0000    313784.800000        30.823210    313770.800000       -89.456150    312360.800000       150.596700       963.169100      -145.218000       950.333800        94.436520       958.619600       -24.815730        59.966240         0.097275
1643124140.0000    313781.500000        18.222260    313777.300000      -102.043200    312405.600000       138.001600       964.064700      -157.740300       951.055000        81.865250       959.646500       -37.380160        59.966560         0.046921
1643124141.0000    313793.100000         6.209334    313734.700000      -114.072600    312336.200000       125.986300       964.509200      -169.802400       950.741300        69.850090       959.748800       -49.332910        59.966700         0.029297
1643124142.0000    313753.400000        -5.557697    313730.400000      -125.830700    312355.700000       114.222200       964.327100       178.453500       951.524200        58.071800       959.640200       -61.148230        59.967540         0.003204
1643124143.0000    313856.800000       -16.727010    313835.600000      -136.997200    312479.700000       103.052200       963.972900       167.316400       951.463700        46.913390       959.371300       -72.310020        59.969750        -0.011444
1643124144.0000    313886.700000       -27.216300    313801.400000      -147.494700    312440.300000        92.569770       963.607100       156.770700       950.156500        36.426900       958.798900       -82.772940        59.970460        -0.021515
1643124145.0000    313734.500000       -37.353050    313655.200000      -157.619800    312318.100000        82.435780       965.225200       146.688700       951.972500        26.335210       960.507000       -92.892170        59.971830        -0.029526
1643124146.0000    313730.400000       -47.020610    313581.700000      -167.280500    312303.100000        72.781360       964.310400       137.011200       951.355000        16.674370       959.979700      -102.565900        59.972930         0.015564
1643124147.0000    313804.800000       -56.564920    313726.300000      -176.840300    312362.500000        63.217820       965.466700       127.453800       951.986900         7.070915       960.406600      -112.116200        59.972680        -0.032501
1643124148.0000    313816.800000       -65.972240    313696.400000       173.747300    312316.700000        53.819110       962.827900       117.999600       949.562300        -2.348947       958.401800      -121.578700        59.975140         0.048752
1643124149.0000    313797.300000       -75.007700    313726.200000       164.713800    312346.300000        44.774510       963.249100       108.990300       950.258700       -11.381040       958.360800      -130.606400        59.975020         0.022430
1643124150.0000    313921.000000       -83.529240    313837.100000       156.196200    312452.200000        36.255910       964.949300       100.458000       951.259000       -19.930280       959.958700      -139.131100        59.978190         0.046005
1643124151.0000    313910.000000       -91.054200    313865.800000       148.677600    312519.100000        28.730830       965.029800        92.933260       951.012100       -27.442160       959.619500      -146.667800        59.980790         0.040741
1643124152.0000    313939.600000       -98.022540    313915.100000       141.702300    312520.300000        21.756270       963.687600        86.007860       950.632000       -34.374820       958.506000      -153.580300        59.982090         0.017395
1643124153.0000    313739.200000      -104.441800    313805.400000       135.286700    312383.000000        15.322440       964.161800        79.608000       951.321700       -40.792130       958.618000      -160.011400        59.983090         0.032272
1643124154.0000    313891.000000      -110.309500    313823.200000       129.407700    312414.000000         9.469940       961.696400        73.623530       948.307700       -46.764280       956.606200      -165.972800        59.983520        -0.044403
1643124155.0000    313912.600000      -115.389100    313851.300000       124.339000    312491.400000         4.396547       962.902800        68.567290       949.597200       -51.794760       957.502100      -171.019900        59.986900        -0.008926
1643124156.0000    313945.700000      -119.556900    313930.600000       120.174600    312555.600000         0.218015       958.924800        64.347640       945.535700       -56.020110       953.611500      -175.230200        59.987460        -0.070496
1643124157.0000    313941.700000      -123.481900    313881.800000       116.250300    312534.300000        -3.696798       961.320500        60.501090       948.281100       -59.902420       956.514400      -179.143300        59.990290         0.058136
1643124158.0000    313938.900000      -126.907300    313899.300000       112.820300    312545.100000        -7.128181       961.298300        57.032090       948.116500       -63.329620       956.225900       177.459600        59.991390        -0.049667
1643124159.0000    313883.600000      -129.295800    313902.600000       110.437300    312543.000000        -9.523114       960.842200        54.602440       947.596100       -65.744120       955.950100       175.041500        59.994790         0.020370
1643124160.0000    313952.500000      -131.078300    313906.600000       108.647300    312547.400000       -11.297690       961.015400        52.894140       947.719600       -67.497970       955.764500       173.297100        59.996660         0.042801
1643124161.0000    313878.700000      -131.993800    313845.800000       107.739500    312494.900000       -12.209920       960.140900        51.974790       947.429400       -68.408130       955.053700       172.364700        59.997490        -0.038223
1643124162.0000    313817.700000      -132.550300    313814.500000       107.179600    312441.800000       -12.776160       961.472200        51.426930       948.519900       -68.979270       955.824200       171.817400        59.999020        -0.010986
1643124163.0000    313657.600000      -132.633900    313642.100000       107.089900    312249.800000       -12.853440       962.337500        51.416090       949.509500       -69.012390       957.144300       171.763700        60.000330         0.014648
1643124164.0000    313834.000000      -132.641300    313808.300000       107.076400    312383.200000       -12.865710       961.518100        51.299320       948.345600       -69.086810       956.215100       171.703500        60.000060         0.024719
1643124165.0000    313829.000000      -132.644300    313832.600000       107.078700    312432.800000       -12.872140       960.653600        51.266460       947.258100       -69.104900       955.355800       171.681600        59.999730         0.005722
1643124166.0000    313699.200000      -133.042200    313675.800000       106.692900    312324.000000       -13.257290       961.812400        50.925570       948.898500       -69.497960       956.543200       171.311400        59.998060         0.017395
1643124167.0000    313710.500000      -134.025200    313718.600000       105.693000    312268.300000       -14.259780       963.472200        49.945610       950.683000       -70.439840       958.160600       170.336100        59.997830         0.033188
1643124168.0000    313836.800000      -135.194100    313861.800000       104.524000    312405.500000       -15.427060       960.151700        48.697670       947.241500       -71.713830       955.338700       169.061800        59.995800        -0.024261
1643124169.0000    313729.500000      -137.135800    313765.100000       102.599300    312382.300000       -17.361460       961.296900        46.793150       948.305800       -73.588940       956.274100       167.178400        59.992920        -0.014420
1643124170.0000    313749.800000      -139.663800    313733.400000       100.064800    312358.100000       -19.882910       959.569900        44.257430       946.336100       -76.147950       954.466900       164.653700        59.990420        -0.064545
1643124171.0000    313687.600000      -142.888400    313702.000000        96.831770    312281.700000       -23.119880       961.914700        41.075720       949.035000       -79.327800       956.489700       161.458700        59.990060        -0.002747
1643124172.0000    313726.800000      -146.814000    313708.800000        92.906550    312304.500000       -27.036570       962.391200        37.104980       948.391000       -83.282310       956.618100       157.515200        59.988180         0.020828
1643124173.0000    313653.700000      -151.578500    313687.400000        88.151420    312304.900000       -31.807620       962.061000        32.421810       949.199000       -88.017090       956.413500       152.778900        59.984860        -0.009842
1643124174.0000    313592.200000      -157.488500    313554.800000        82.234770    312191.800000       -37.710600       963.979900        26.515510       950.859000       -93.899090       958.604100       146.896800        59.981560         0.003204
1643124175.0000    313647.400000      -164.102400    313650.900000        75.626390    312265.000000       -44.329840       963.425700        19.878920       950.177100      -100.503800       957.978100       140.292300        59.981200        -0.005264
1643124176.0000    313559.800000      -171.605100    313581.800000        68.135370    312238.200000       -51.826450       962.920100        12.409880       950.059000      -107.992100       957.567300       132.785300        59.978540        -0.046005
1643124177.0000    313791.500000      -179.363000    313729.900000        60.360840    312371.500000       -59.584890       961.522000         4.597988       948.768700      -115.813700       956.551700       124.960200        59.978090         0.017853
1643124178.0000    313665.200000       172.641700    313601.100000        52.373320    312261.300000       -67.571220       962.602600        -3.362924       949.912900      -123.746200       958.138600       117.015500        59.977860         0.067520
1643124179.0000    313604.000000       163.861600    313636.800000        43.591430    312243.300000       -76.367990       964.684900       -12.123530       951.370800      -132.542600       959.466700       108.253200        59.975190         0.010071
