Terminal: LT 500  PECEM II - ACARAU III CL1
Tensão base: 500 kV
SOC inicial: 1643124120
SOC final: 1643124179
Taxa: 1 fasores/s
Total de frames faltantes: - 

Tempo_(SOC)           VA_mod_(V)     VA_ang_(graus)     VB_mod_(V)     VB_ang_(graus)     VC_mod_(V)     VC_ang_(graus)     IA_mod_(A)     IA_ang_(graus)     IB_mod_(A)     IB_ang_(graus)     IC_mod_(A)     IC_ang_(graus)     Frequência        Delta_Freq     Faltante
1643124120.0000    306425.000000       -23.273900    307767.200000      -143.251900    306010.700000        96.633290       186.316100        95.553830       184.686500       -24.156670       187.285000      -144.468500        59.975480        -0.001831
1643124121.0000    306326.200000       -32.295460    307676.200000      -152.271500    305924.500000        87.610630       186.611600        86.496190       184.777400       -33.448680       187.203400      -153.623900        59.973070        -0.050354
1643124122.0000    306321.800000       -41.730830    307729.600000      -161.703400    305966.800000        78.174160       186.200100        77.040310       185.467700       -42.577040       187.115600      -162.907900        59.973360        -0.003433
1643124123.0000    306341.900000       -51.707040    307761.100000      -171.696500    305949.700000        68.181980       185.862400        67.171280       184.776100       -52.407000       187.046400      -172.932700        59.971330         0.013046
1643124124.0000    306229.800000       -62.077640    307724.800000       177.930000    305858.700000        57.798620       186.703400        56.213790       185.151500       -63.480020       187.970400       176.373800        59.971530         0.009613
1643124125.0000    306227.000000       -72.667800    307488.400000       167.354300    305803.000000        47.256290       187.949200        46.094960       187.178100       -73.813390       188.093300       165.734300        59.970520         0.018997
1643124126.0000    306309.600000       -83.825640    307609.800000       156.167900    305767.800000        36.075370       186.741600        34.887700       186.351900       -84.543520       188.405400       154.886500        59.968780         0.018997
1643124127.0000    306235.800000       -95.398700    307631.700000       144.606600    305794.400000        24.492610       187.582000        23.556900       186.249100       -96.131660       188.430600       143.548200        59.966370         0.002289
1643124128.0000    306250.700000      -106.902400    307563.400000       133.088500    305687.700000        12.994240       187.465700        11.637590       187.131700      -107.804100       188.983600       131.604500        59.969490         0.002747
1643124129.0000    306346.700000      -117.989900    307660.400000       122.003200    305799.800000         1.908747       186.780000         0.873277       185.600900      -118.735800       187.914900       120.836600        59.969090        -0.002747
1643124130.0000    306245.400000      -129.472600    307601.800000       110.532900    305779.800000        -9.576307       187.197800       -10.486340       186.107300      -130.003200       188.673600       109.528700        59.966650        -0.047607
1643124131.0000    306227.800000      -140.962600    307677.600000        99.024350    305698.600000       -21.090780       187.337700       -22.176850       185.744100      -141.596400       188.843900        97.981780        59.967790        -0.021057
1643124132.0000    306244.000000      -152.971500    307675.300000        87.028460    305775.400000       -33.088510       187.326100       -33.672900       185.893100      -153.318400       188.491000        86.500580        59.965300         0.004349
1643124133.0000    306257.300000      -166.151400    307633.000000        73.860270    305809.600000       -46.257010       188.111700       -47.063670       186.380700      -166.671400       188.045700        73.093830        59.962780         0.021973
1643124134.0000    306142.300000      -179.846800    307490.800000        60.169450    305725.700000       -59.940650       187.960400       -61.245210       186.978800       179.208600       189.038700        58.806210        59.962170         0.010300
1643124135.0000    306255.600000       166.057500    307529.800000        46.073720    305789.100000       -74.031590       187.307900       -74.913560       186.411500       165.400100       188.255100        45.023470        59.959630        -0.016708
1643124136.0000    306266.200000       151.402800    307665.000000        31.430940    305933.000000       -88.698660       187.396000       -89.537140       185.363100       150.637800       187.870100        30.577050        59.960690         0.011673
1643124137.0000    306110.200000       137.601900    307584.100000        17.607020    305690.800000      -102.520900       188.382800      -104.215200       186.556100       136.455900       188.981200        16.225490        59.961780        -0.024490
1643124138.0000    306267.300000       124.409100    307596.000000         4.420698    305815.500000      -115.688300       187.191800      -116.711600       185.923600       123.716100       187.883900         3.288864        59.963760        -0.016251
1643124139.0000    306361.000000       111.487500    307623.000000        -8.497317    305889.800000      -128.600000       186.836400      -129.229200       185.866000       110.917600       187.493400        -9.438042        59.963800        -0.059738
1643124140.0000    306249.300000        99.135680    307538.500000       -20.855500    305774.000000      -140.957400       187.442300      -141.880900       186.429200        98.384250       188.453300       -21.942850        59.964810        -0.030670
1643124141.0000    306160.200000        86.975620    307640.100000       -33.003440    305816.100000      -153.139100       187.194700      -154.089200       185.684400        86.208360       187.851700       -34.141860        59.966100        -0.070496
1643124142.0000    306363.000000        75.387570    307811.200000       -44.607800    305931.500000      -164.727700       185.640800      -165.770400       184.408100        74.815730       186.833200       -45.480380        59.968660         0.012589
1643124143.0000    306331.600000        64.101550    307607.200000       -55.899460    305786.700000      -175.992600       186.593500      -177.416400       185.915100        63.200280       188.021200       -57.466680        59.970120         0.000458
1643124144.0000    306321.800000        53.545600    307666.700000       -66.434680    305911.600000       173.451600       186.354100       172.272900       185.527500        52.470880       187.835100       -67.915410        59.971920         0.032043
1643124145.0000    306335.500000        43.665340    307778.400000       -76.322300    305961.900000       163.549100       185.742200       162.474400       184.257700        42.870180       186.692300       -77.392690        59.972760        -0.033417
1643124146.0000    306327.800000        34.004610    307672.400000       -85.992410    305856.700000       153.900700       185.640300       152.523600       185.029300        33.086970       187.603500       -87.445680        59.973310        -0.027466
1643124147.0000    306228.700000        24.543190    307546.800000       -95.445800    305758.900000       144.450400       187.221700       142.968700       185.995500        23.231150       188.066800       -97.070480        59.973920         0.033875
1643124148.0000    306358.000000        15.003360    307679.700000      -104.997100    305854.500000       134.903800       185.829700       133.498500       185.288300        14.117610       186.905000      -106.428400        59.973630        -0.004578
1643124149.0000    306342.100000         5.859503    307575.700000      -114.137000    305826.500000       125.775700       186.414500       124.192300       186.142300         4.699641       187.506500      -115.946000        59.975610        -0.002518
1643124150.0000    306212.800000        -2.690526    307597.000000      -122.692800    305724.100000       117.198000       187.435900       115.674400       186.259100        -3.760799       188.462600      -124.149400        59.976570        -0.027924
1643124151.0000    306375.100000       -10.402250    307838.300000      -130.390900    305963.300000       109.480300       186.742200       108.201800       184.905600       -11.364100       187.086400      -131.591200        59.980530        -0.022430
1643124152.0000    306377.500000       -17.201740    307725.900000      -137.186200    305947.400000       102.700700       187.262500       101.998200       185.593800       -17.824760       187.534400      -137.952300        59.982130         0.010986
1643124153.0000    306356.900000       -23.712120    307665.500000      -143.674900    306016.400000        96.204220       186.956900        95.336310       185.303000       -24.661660       187.150400      -144.745900        59.982910         0.042801
1643124154.0000    306502.200000       -29.769890    307813.200000      -149.743500    306089.600000        90.147500       185.538100        89.212400       184.371400       -30.499870       186.036400      -150.832600        59.984020         0.006180
1643124155.0000    306423.200000       -34.792880    307841.000000      -154.783200    305991.900000        85.094960       187.135500        83.963470       185.303500       -35.552110       187.314600      -155.850100        59.987420         0.021744
1643124156.0000    306248.900000       -39.076050    307657.200000      -159.061600    305835.400000        80.817040       188.291200        79.685470       186.650400       -40.094560       188.664600      -160.381600        59.989240         0.012589
1643124157.0000    306292.000000       -42.764340    307662.000000      -162.771700    305776.600000        77.124140       187.165400        75.803200       186.169200       -43.710170       188.749100      -163.999400        59.989820        -0.006180
1643124158.0000    306338.800000       -46.372930    307749.100000      -166.354300    305939.200000        73.524060       187.775500        72.624950       186.021900       -47.073070       188.212800      -167.368900        59.991000         0.002747
1643124159.0000    306214.300000       -48.935040    307563.100000      -168.929600    305735.000000        70.964950       188.289000        69.416850       187.601900       -50.188930       189.749000      -170.608300        59.994350        -0.009155
1643124160.0000    306190.800000       -50.473910    307629.700000      -170.458700    305797.300000        69.414920       188.801200        68.258770       187.632200       -51.354830       189.683300      -171.771000        59.997210         0.012817
1643124161.0000    306402.500000       -51.577670    307769.700000      -171.554900    306010.300000        68.325740       187.492300        67.292750       185.482000       -52.467250       187.925700      -172.680500        59.998600         0.030212
1643124162.0000    306372.700000       -51.920270    307724.900000      -171.894600    305972.700000        67.986090       186.987000        66.639680       185.491700       -53.189440       187.881800      -173.415000        59.999530        -0.028839
1643124163.0000    306231.400000       -51.919870    307649.200000      -171.890000    305900.500000        67.976340       188.367000        66.451360       186.352100       -53.155520       188.327800      -173.411800        60.001250        -0.028839
1643124164.0000    306310.800000       -51.914260    307768.400000      -171.892700    305961.100000        67.973300       187.208600        66.600330       185.885100       -52.947630       188.227600      -173.111200        59.999870         0.002289
1643124165.0000    306326.700000       -52.184050    307825.300000      -172.195800    305841.300000        67.681230       187.395200        66.150080       185.203400       -53.394190       188.710600      -173.811100        59.998310        -0.018311
1643124166.0000    306242.200000       -52.304870    307613.300000      -172.291900    305781.600000        67.592240       188.132400        65.993350       186.541000       -53.763770       188.993600      -174.047400        60.000420         0.043488
1643124167.0000    306310.200000       -53.170430    307662.100000      -173.117100    306052.300000        66.749630       187.593000        65.399880       185.675300       -54.524800       187.982500      -174.638000        59.996430         0.025177
1643124168.0000    306247.600000       -54.936020    307669.000000      -174.893800    305946.500000        64.967970       187.889600        63.422380       185.940000       -56.194790       188.765800      -176.655800        59.994880        -0.008240
1643124169.0000    306167.600000       -56.688350    307531.000000      -176.672500    305728.000000        63.212050       188.937500        60.951720       187.223600       -58.458520       189.360200      -178.846700        59.995250         0.025864
1643124170.0000    306219.800000       -59.309280    307581.200000      -179.281500    305850.500000        60.595150       188.052900        58.864190       186.798200       -60.665800       188.544100       179.139500        59.992220        -0.019913
1643124171.0000    306294.900000       -62.387740    307646.300000       177.644700    305930.700000        57.523700       187.732900        55.811760       186.285700       -64.021090       188.220500       175.796100        59.991180         0.059509
1643124172.0000    305985.800000       -66.145870    307350.100000       173.885400    305620.200000        53.761350       189.295800        51.209030       187.452600       -68.552680       190.090300       171.217100        59.986890        -0.052872
1643124173.0000    306103.800000       -71.061040    307547.600000       168.961900    305755.800000        48.829600       188.623600        46.876360       187.100900       -72.803560       188.662600       167.128800        59.985030         0.006409
1643124174.0000    306532.200000       -76.624300    307919.700000       163.386600    306076.300000        43.266540       184.722500        41.620860       183.244400       -77.942380       185.975400       161.819600        59.983880         0.005722
1643124175.0000    306163.300000       -83.429340    307571.300000       156.587400    305765.900000        36.462040       188.275800        34.477530       185.999500       -84.956000       188.927400       154.661300        59.979190         0.004807
1643124176.0000    306066.500000       -90.943520    307492.400000       149.091000    305747.200000        28.953680       188.637100        26.817160       186.741700       -92.953210       188.729900       146.943800        59.979000         0.017853
1643124177.0000    306363.300000       -98.920910    307721.500000       141.088000    305899.100000        20.979480       185.840600        18.883500       184.582100      -100.686500       187.284100       139.089200        59.977500         0.015564
1643124178.0000    306362.600000      -106.802600    307654.700000       133.205500    305844.400000        13.103100       186.349500        11.077860       185.566400      -108.416400       188.203600       131.256300        59.977340        -0.007095
1643124179.0000    306151.800000      -115.308700    307477.400000       124.740800    305869.200000         4.613193       187.800200         3.069399       187.170600      -116.900800       188.211600       122.800600        59.974720         0.024261
