Terminal: LT 525  IVAIPORA ELS - CASCAVEL OEST C1
Tensão base: 525 kV
SOC inicial: 1643124120
SOC final: 1643124179
Taxa: 1 fasores/s
Total de frames faltantes: - 

Tempo_(SOC)           VA_mod_(V)     VA_ang_(graus)     VB_mod_(V)     VB_ang_(graus)     VC_mod_(V)     VC_ang_(graus)     IA_mod_(A)     IA_ang_(graus)     IB_mod_(A)     IB_ang_(graus)     IC_mod_(A)     IC_ang_(graus)     Frequência        Delta_Freq     Faltante
1643124120.0000    313399.600000      -105.308900    313749.600000       133.902000    312432.100000        13.949270       154.831200        93.816820       147.417400       -22.726900       155.165900      -141.026400        59.974320         0.002060
1643124121.0000    313252.400000      -114.401500    313747.800000       124.823800    312446.000000         4.848276       154.703300        84.137100       147.193400       -31.892930       155.774500      -150.253000        59.973910        -0.047379
1643124122.0000    313244.400000      -123.844400    313581.300000       115.374900    312315.600000        -4.571640       156.511300        74.993240       148.914700       -41.510540       156.309400      -159.578900        59.973360         0.024261
1643124123.0000    313321.700000      -133.802900    313805.200000       105.421000    312488.500000       -14.551480       155.867100        65.123530       148.784900       -51.010480       156.983600      -169.521100        59.972310        -0.018311
1643124124.0000    313388.100000      -143.999400    313803.600000        95.224300    312519.000000       -24.739340       155.569000        55.000320       148.480200       -61.386210       156.264800      -179.577700        59.971100         0.000916
1643124125.0000    313355.700000      -154.704300    313764.100000        84.502500    312408.500000       -35.451030       155.701600        44.175080       149.001400       -72.174690       156.490000       169.376600        59.970590         0.033646
1643124126.0000    313220.400000      -165.932200    313724.700000        73.279590    312342.600000       -46.692960       154.809900        32.641570       147.819600       -83.432560       155.998300       158.016900        59.967490        -0.030441
1643124127.0000    313357.700000      -177.529300    313746.700000        61.689080    312449.900000       -58.267120       154.631200        21.259810       147.432800       -95.088520       155.217300       146.608800        59.967710        -0.001373
1643124128.0000    313388.800000       171.270100    313756.700000        50.495090    312512.700000       -69.461200       155.626900         9.873082       148.260800      -106.632300       155.994400       135.357500        59.968750         0.024948
1643124129.0000    313332.400000       159.756300    313764.300000        38.963780    312394.600000       -80.999500       153.851100        -1.591134       147.153900      -117.797200       154.889300       123.715700        59.968330         0.054474
1643124130.0000    313452.900000       148.426800    313917.600000        27.654170    312619.500000       -92.319170       154.844600       -12.907810       147.331500      -129.060200       155.790100       112.618500        59.969500         0.046692
1643124131.0000    313140.600000       136.824000    313601.000000        16.034350    312246.100000      -103.931400       154.720600       -25.073020       147.719100      -141.224000       155.808100       100.359600        59.965500        -0.053329
1643124132.0000    313147.300000       124.524400    313607.600000         3.723327    312225.600000      -116.234800       154.973400       -37.352100       148.134800      -153.503300       156.225200        87.968060        59.965060        -0.015335
1643124133.0000    313254.200000       111.590500    313698.900000        -9.200798    312332.200000      -129.168800       154.515700       -50.082580       147.295800      -166.378100       155.481800        75.235860        59.962940        -0.047379
1643124134.0000    313137.300000        98.046480    313608.200000       -22.755250    312197.300000      -142.720000       153.831700       -63.795680       146.969200      -179.908800       154.949400        61.583720        59.961530         0.012589
1643124135.0000    313344.000000        83.764310    313744.200000       -37.028850    312395.800000      -156.985400       154.505200       -77.748830       147.510800       165.927200       155.181500        47.607070        59.960040         0.024948
1643124136.0000    313349.800000        69.301190    313752.200000       -51.490880    312406.900000      -171.450000       153.948200       -92.274750       147.192400       151.460900       154.827600        33.056050        59.959250        -0.051041
1643124137.0000    313326.400000        55.223880    313733.700000       -65.556860    312457.800000       174.475800       153.897100      -106.716900       146.528000       136.868500       154.580200        18.656640        59.961810         0.013504
1643124138.0000    313462.700000        41.785640    313883.700000       -78.990350    312597.200000       161.041900       154.092800      -119.909600       146.576900       123.841000       154.559800         5.553534        59.964030         0.021057
1643124139.0000    313315.500000        29.055850    313748.100000       -91.737770    312395.800000       148.300700       154.306600      -133.112400       147.115800       110.638100       154.932700        -7.704466        59.966930         0.105743
1643124140.0000    313345.100000        16.454650    313776.300000      -104.324600    312481.000000       135.705000       153.873600      -145.541200       146.472000        98.265440       154.760700       -20.062230        59.966410         0.051270
1643124141.0000    313333.300000         4.438323    313752.600000      -116.360700    312380.200000       123.687100       153.452100      -157.602600       146.446700        85.966560       154.154100       -32.469650        59.968050         0.029984
1643124142.0000    313297.700000        -7.327372    313728.300000      -128.113700    312409.600000       111.924500       153.768200      -169.143300       146.706300        74.547450       154.631700       -43.675290        59.967130        -0.012817
1643124143.0000    313439.300000       -18.490220    313862.800000      -139.271000    312555.900000       100.760800       153.715300       179.644900       146.142100        63.343810       154.116200       -54.911060        59.969010        -0.032501
1643124144.0000    313444.400000       -28.984280    313802.300000      -149.775300    312512.400000        90.272350       153.596900       169.153800       146.618000        52.815260       154.393300       -65.413970        59.971580         0.016937
1643124145.0000    313314.500000       -39.127970    313674.400000      -159.911100    312416.100000        80.129150       153.406600       158.941900       146.185400        42.529100       153.883900       -75.723240        59.972980         0.027237
1643124146.0000    313294.500000       -48.782490    313609.300000      -169.564500    312392.200000        70.482860       154.741700       149.027700       147.067700        32.497650       154.639400       -85.645790        59.975170         0.073471
1643124147.0000    313401.900000       -58.337650    313762.400000      -179.126000    312444.200000        60.919360       154.248800       139.959800       147.163600        23.549840       154.826700       -94.637830        59.973420        -0.012131
1643124148.0000    313354.600000       -67.735050    313684.000000       171.467800    312381.400000        51.527070       154.587400       130.527300       147.628400        13.849270       154.992600      -104.257900        59.974410        -0.057449
1643124149.0000    313353.400000       -76.773920    313730.200000       162.433000    312396.900000        42.481290       154.493500       121.368500       147.426700         4.907205       154.747300      -113.301000        59.975810         0.014877
1643124150.0000    313481.500000       -85.298980    313816.600000       153.913300    312523.400000        33.964490       153.959300       113.044900       146.556700        -3.469665       154.313600      -121.605900        59.977830         0.040054
1643124151.0000    313447.400000       -92.823420    313847.800000       146.398600    312584.500000        26.435170       154.872200       105.309000       147.105600       -11.095220       155.188100      -129.262100        59.980710         0.024490
1643124152.0000    313522.700000       -99.790080    313941.900000       139.423300    312615.700000        19.460370       154.231500        98.289180       147.001700       -17.977110       154.841400      -136.270300        59.980690        -0.054703
1643124153.0000    313314.300000      -106.212400    313810.300000       133.002100    312472.000000        13.025670       154.376100        91.617610       147.036200       -24.479210       155.297000      -142.904900        59.982890         0.024948
1643124154.0000    313394.000000      -112.053900    313809.600000       127.149100    312447.700000         7.196417       155.509000        86.175530       148.879400       -30.192930       156.196700      -148.641400        59.984850        -0.014877
1643124155.0000    313460.200000      -117.146400    313830.300000       122.068900    312515.800000         2.112135       154.094700        81.171940       146.786000       -35.180890       154.472400      -153.497400        59.987310         0.024948
1643124156.0000    313452.000000      -121.295400    313915.600000       117.927500    312587.700000        -2.040024       155.701000        76.842680       148.558500       -39.481820       156.391300      -157.822300        59.988780        -0.011444
1643124157.0000    313482.500000      -125.229000    313888.800000       113.993000    312576.800000        -5.967252       155.164900        73.061920       147.797000       -43.399510       155.445100      -161.544000        59.990510         0.051041
1643124158.0000    313482.400000      -128.650300    313887.800000       110.568700    312571.800000        -9.390539       154.580700        69.622920       147.345600       -46.731160       155.196400      -164.866400        59.992570         0.011444
1643124159.0000    313390.200000      -131.044500    313868.900000       108.178500    312551.800000       -11.789390       154.397600        67.035060       147.372400       -49.140490       155.517300      -167.545800        59.993500         0.004807
1643124160.0000    313499.400000      -132.821300    313911.300000       106.394300    312575.400000       -13.563030       154.892900        65.513890       147.679700       -50.817760       155.451900      -169.156700        59.996300        -0.010986
1643124161.0000    313374.300000      -133.735500    313822.600000       105.482700    312530.100000       -14.476300       156.106600        64.346660       148.612500       -51.996990       156.526200      -170.230100        59.997910        -0.009842
1643124162.0000    313357.100000      -134.295700    313791.700000       104.915900    312462.200000       -15.047630       154.692900        63.640560       147.658700       -52.588660       155.679300      -170.942000        59.997760        -0.094986
1643124163.0000    313222.000000      -134.392800    313602.300000       104.815500    312288.300000       -15.137300       155.471700        63.312810       148.193300       -53.091920       155.986700      -171.370400        60.000590         0.036392
1643124164.0000    313334.300000      -134.385900    313771.000000       104.817100    312382.200000       -15.135260       155.712300        63.732150       148.702700       -52.620490       156.335300      -171.037700        60.000460        -0.009155
1643124165.0000    313303.300000      -134.389900    313775.500000       104.822100    312412.300000       -15.139360       156.166400        63.786530       148.962500       -52.612450       156.854900      -170.910300        59.999010         0.004578
1643124166.0000    313201.700000      -134.795000    313591.200000       104.425500    312331.300000       -15.533260       155.170200        63.432510       147.536600       -52.825500       155.774900      -171.108900        59.997730        -0.018997
1643124167.0000    313205.000000      -135.783800    313684.700000       103.418000    312288.000000       -16.546520       153.693500        62.385890       146.757900       -53.776910       154.660400      -172.377000        59.998310         0.042572
1643124168.0000    313297.500000      -136.928500    313809.200000       102.275300    312370.500000       -17.688610       155.999100        61.691780       149.165900       -54.545550       156.943000      -173.103000        59.996390         0.002060
1643124169.0000    313209.200000      -138.889300    313690.200000       100.332600    312364.900000       -19.638570       154.962700        59.431260       147.591800       -56.810630       156.052300      -175.086800        59.994300         0.031357
1643124170.0000    313199.100000      -141.410200    313648.800000        97.803900    312330.700000       -22.154480       155.810800        56.840900       148.601000       -59.458760       156.304800      -177.735000        59.991330        -0.013504
1643124171.0000    313169.000000      -144.637200    313645.700000        94.566720    312269.800000       -25.396510       155.013000        53.336360       148.087300       -62.874820       155.849100       178.643000        59.989320        -0.031815
1643124172.0000    313231.600000      -148.567400    313638.000000        90.638170    312294.100000       -29.315180       155.289600        49.764920       148.170600       -66.577760       156.081400       175.075000        59.987870         0.001144
1643124173.0000    313140.700000      -153.333500    313644.400000        85.880310    312302.600000       -34.091300       155.080900        44.655300       147.667100       -71.515350       155.841300       170.070800        59.985680        -0.021286
1643124174.0000    313090.500000      -159.257300    313515.000000        79.950320    312192.900000       -40.004050       154.560200        38.902070       147.307800       -77.427100       155.015400       164.312500        59.982030        -0.005035
1643124175.0000    313151.100000      -165.861400    313624.900000        73.348950    312285.700000       -46.616130       154.554900        32.265410       147.083600       -84.033230       155.271300       157.652700        59.979800        -0.039825
1643124176.0000    313099.400000      -173.355800    313563.300000        65.866490    312275.000000       -54.103580       154.704600        24.600340       147.065200       -91.613240       155.180300       150.101500        59.977380        -0.067520
1643124177.0000    313323.100000       178.891400    313704.100000        58.099400    312348.500000       -61.850350       155.188500        17.328730       148.297400       -99.187900       155.956900       142.514400        59.978570        -0.040512
1643124178.0000    313169.700000       170.890900    313577.300000        50.105940    312289.300000       -69.848320       155.309600         8.893114       148.000600      -107.632500       155.448700       134.264000        59.977850         0.053101
1643124179.0000    313144.900000       162.109100    313615.200000        41.321240    312290.800000       -78.649250       154.549200        -0.024640       146.984200      -116.225000       155.401700       125.534000        59.976230         0.063858
