Terminal: LT 500  IBIUNA - ITATIBA C1
Tensão base: 500 kV
SOC inicial: 1643124120
SOC final: 1643124179
Taxa: 1 fasores/s
Total de frames faltantes: - 

Tempo_(SOC)           VA_mod_(V)     VA_ang_(graus)     VB_mod_(V)     VB_ang_(graus)     VC_mod_(V)     VC_ang_(graus)     IA_mod_(A)     IA_ang_(graus)     IB_mod_(A)     IB_ang_(graus)     IC_mod_(A)     IC_ang_(graus)     Frequência        Delta_Freq     Faltante
1643124120.0000    310528.200000         6.133102    312354.100000       126.085500    312223.200000      -113.590800      1586.979000        81.959670      1572.375000       -37.970520      1590.244000        81.246300        59.975050         0.144380
1643124121.0000    310692.000000        -2.980649    312410.700000       117.024200    312089.900000      -122.693000      1587.597000        72.938190      1572.465000       -46.992250      1591.155000        72.207210        59.974700        -0.035750
1643124122.0000    310610.800000       -12.424870    312289.000000       107.541700    312170.000000      -132.163800      1587.357000        63.462400      1571.225000       -56.431820      1590.578000        62.679530        59.973510        -0.110505
1643124123.0000    310845.900000       -22.402160    312602.800000        97.598730    312281.200000      -142.111100      1584.197000        53.454670      1568.679000       -66.484880      1588.061000        52.719830        59.973390        -0.047479
1643124124.0000    310870.400000       -32.579450    312557.100000        87.399950    312368.100000      -152.310600      1582.840000        43.239330      1567.537000       -76.706310      1586.680000        42.506700        59.971620         0.047346
1643124125.0000    310548.600000       -43.291420    312427.800000        76.667570    312239.800000      -163.003500      1583.619000        32.502410      1568.884000       -87.416530      1587.016000        31.780290        59.970250        -0.039785
1643124126.0000    310512.800000       -54.536910    312424.000000        65.450650    312096.800000      -174.229000      1585.844000        21.374610      1571.336000       -98.569120      1589.664000        20.669740        59.969120         0.177565
1643124127.0000    310727.700000       -66.086490    312384.600000        53.886050    312235.300000       174.173100      1586.110000         9.749104      1569.509000      -110.203100      1591.025000         8.988845        59.966140        -0.064436
1643124128.0000    310639.600000       -77.301840    312331.800000        42.663610    312222.200000       162.961200      1582.884000        -1.478242      1568.274000      -121.401400      1585.901000        -2.196390        59.968870        -0.068104
1643124129.0000    310554.400000       -88.817280    312461.200000        31.156040    312198.000000       151.483500      1587.238000       -12.969560      1572.957000      -132.907100      1590.624000       -13.666190        59.969870         0.251186
1643124130.0000    310968.000000      -100.134800    312667.900000        19.861200    312397.100000       140.143900      1582.433000       -24.216260      1567.794000      -144.165600      1586.281000       -24.927560        59.972250         0.120511
1643124131.0000    310318.900000      -111.787500    312212.200000         8.203588    311870.100000       128.519500      1584.862000       -35.887410      1570.683000      -155.820900      1587.977000       -36.587390        59.965360        -0.173164
1643124132.0000    310293.000000      -124.089600    312226.300000        -4.118182    311955.500000       116.215600      1586.528000       -48.173290      1572.359000      -168.115000      1590.036000       -48.871160        59.965310        -0.011471
1643124133.0000    310457.300000      -137.010100    312400.200000       -17.016350    312014.500000       103.305700      1586.498000       -61.122870      1571.938000       178.968600      1588.974000       -61.844170        59.964640         0.026204
1643124134.0000    310274.800000      -150.565700    312226.800000       -30.593940    311947.100000        89.740460      1584.723000       -74.705590      1570.608000       165.318200      1588.701000       -75.380160        59.960390         0.116343
1643124135.0000    310626.300000      -164.823900    312485.400000       -44.858320    312279.600000        75.465450      1585.188000       -88.916160      1570.325000       151.155400      1588.681000       -89.635780        59.960020         0.108442
1643124136.0000    310621.800000      -179.270500    312428.100000       -59.290820    312176.100000        61.017080      1584.427000      -103.387700      1568.597000       136.673200      1588.744000      -104.135000        59.959810        -0.196394
1643124137.0000    310525.500000       166.658600    312265.100000       -73.366670    312067.600000        46.934280      1585.594000      -117.435100      1570.770000       122.609600      1589.513000      -118.141200        59.960900        -0.117024
1643124138.0000    310816.600000       153.232300    312516.800000       -86.780590    312286.600000        33.506870      1586.087000      -130.812900      1570.479000       109.232700      1590.343000      -131.541400        59.964490        -0.160159
1643124139.0000    310426.200000       140.459000    312313.800000       -99.569500    312063.800000        20.755050      1585.578000      -143.647200      1571.247000        96.412580      1588.813000      -144.344700        59.967310         0.180110
1643124140.0000    310655.400000       127.877500    312417.700000      -112.131800    312143.100000         8.163552      1586.343000      -156.151600      1571.310000        83.922430      1589.684000      -156.877300        59.966460        -0.021682
1643124141.0000    310319.400000       115.849500    312151.900000      -124.192300    311991.200000        -3.870082      1586.476000      -168.271300      1571.278000        71.764950      1590.750000      -168.985100        59.967080         0.069836
1643124142.0000    310424.100000       104.090700    312301.100000      -135.938600    312055.700000       -15.614960      1586.544000       179.989200      1572.364000        60.074850      1589.254000       179.280900        59.968050         0.100560
1643124143.0000    310687.900000        92.932790    312460.800000      -147.080000    312198.500000       -26.782320      1585.856000       168.870400      1570.685000        48.946980      1589.225000       168.134300        59.970810         0.195494
1643124144.0000    310676.500000        82.449830    312461.500000      -157.585200    312292.600000       -37.272750      1584.337000       158.393200      1568.469000        38.478400      1587.926000       157.637600        59.970870         0.113612
1643124145.0000    310518.900000        72.310620    312200.700000      -167.711200    312019.200000       -47.421540      1586.543000       148.256200      1570.886000        28.332910      1590.066000       147.505600        59.973320         0.143229
1643124146.0000    310414.200000        62.640220    312027.700000      -177.401200    311973.800000       -57.112340      1587.749000       138.543300      1572.050000        18.623870      1591.211000       137.779000        59.974360         0.169419
1643124147.0000    310565.400000        53.084280    312354.600000       173.049500    312186.400000       -66.636520      1588.741000       129.030500      1573.393000         9.107051      1592.308000       128.288400        59.973750        -0.050065
1643124148.0000    310359.000000        43.676990    312163.900000       163.623700    312075.800000       -76.051590      1586.423000       119.526400      1570.843000        -0.396350      1590.029000       118.774700        59.974100        -0.257772
1643124149.0000    310407.100000        34.628880    312237.500000       154.588500    312074.300000       -85.089610      1587.664000       110.507900      1572.562000        -9.427820      1591.277000       109.776600        59.976030         0.112947
1643124150.0000    310536.000000        26.136920    312315.300000       146.083200    312233.000000       -93.597010      1588.528000       101.969400      1573.306000       -17.969220      1592.370000       101.243100        59.977930         0.208375
1643124151.0000    310655.200000        18.599360    312405.500000       138.577200    312194.000000      -101.123300      1587.342000        94.459390      1572.200000       -25.473480      1590.864000        93.725100        59.980800        -0.044802
1643124152.0000    310727.700000        11.626520    312508.000000       131.603800    312280.600000      -108.091100      1587.176000        87.532220      1571.735000       -32.396710      1590.819000        86.796390        59.982470         0.004938
1643124153.0000    310541.300000         5.163746    312402.200000       125.168300    312018.100000      -114.526500      1588.066000        81.125260      1573.477000       -38.805080      1591.446000        80.406100        59.983310        -0.003431
1643124154.0000    310528.200000         4.971091    312318.700000       124.959400    312044.500000      -114.739700      1587.629000        80.923200      1572.836000       -39.007500      1591.203000        80.206380        59.982660        -0.028943          *
1643124155.0000    310528.200000         4.971091    312318.700000       124.959400    312044.500000      -114.739700      1587.629000        80.923200      1572.836000       -39.007500      1591.203000        80.206380        59.982660        -0.028943          *
1643124156.0000    310528.200000         4.971091    312318.700000       124.959400    312044.500000      -114.739700      1587.629000        80.923200      1572.836000       -39.007500      1591.203000        80.206380        59.982660        -0.028943          *
1643124157.0000    310528.200000         4.971091    312318.700000       124.959400    312044.500000      -114.739700      1587.629000        80.923200      1572.836000       -39.007500      1591.203000        80.206380        59.982660        -0.028943          *
1643124158.0000    310528.200000         4.971091    312318.700000       124.959400    312044.500000      -114.739700      1587.629000        80.923200      1572.836000       -39.007500      1591.203000        80.206380        59.982660        -0.028943          *
1643124159.0000    310528.200000         4.971091    312318.700000       124.959400    312044.500000      -114.739700      1587.629000        80.923200      1572.836000       -39.007500      1591.203000        80.206380        59.982660        -0.028943          *
1643124160.0000    310528.200000         4.971091    312318.700000       124.959400    312044.500000      -114.739700      1587.629000        80.923200      1572.836000       -39.007500      1591.203000        80.206380        59.982660        -0.028943          *
1643124161.0000    310539.400000       -22.386420    312273.900000        97.588720    312075.200000      -142.113700      1585.077000        53.464490      1570.014000       -66.465810      1588.771000        52.737420        59.998280         0.025741
1643124162.0000    310350.300000       -22.941850    312211.200000        97.043440    311915.400000      -142.641800      1584.974000        52.869830      1570.703000       -67.057130      1587.838000        52.162340        59.997600        -0.211846
1643124163.0000    310091.800000       -23.047820    311918.800000        96.910700    311760.200000      -142.767300      1588.262000        52.784010      1573.672000       -67.164880      1591.979000        52.078640        59.998940        -0.084387
1643124164.0000    310325.200000       -23.046340    312246.000000        96.929990    311961.600000      -142.740700      1587.240000        52.786350      1572.028000       -67.130840      1590.438000        52.046160        59.999610        -0.081078
1643124165.0000    310456.800000       -23.057650    312315.600000        96.941970    311948.300000      -142.750200      1585.386000        52.778250      1569.683000       -67.127060      1588.778000        52.014020        59.998790        -0.058224
1643124166.0000    310440.400000       -23.441340    312105.500000        96.543550    311910.900000      -143.173900      1588.087000        52.431120      1572.574000       -67.512760      1592.180000        51.701390        59.997180        -0.050785
1643124167.0000    310296.800000       -24.444840    312209.800000        95.550980    311828.900000      -144.129100      1589.518000        51.428970      1574.114000       -68.497910      1593.220000        50.692770        59.997990         0.087423
1643124168.0000    310456.100000       -25.601540    312434.000000        94.396570    312018.600000      -145.276200      1584.702000        50.193010      1569.530000       -69.712160      1587.629000        49.449830        59.996760        -0.021422
1643124169.0000    310480.700000       -27.541630    312226.800000        92.460860    311905.000000      -147.250700      1586.445000        48.262700      1570.744000       -71.681320      1590.712000        47.533130        59.994110         0.055749
1643124170.0000    310487.600000       -30.064390    312238.700000        89.913830    312026.700000      -149.786100      1583.896000        45.800720      1568.322000       -74.152610      1588.391000        45.063950        59.990640         0.097422
1643124171.0000    310326.700000       -33.300910    312202.700000        86.681570    311907.700000      -153.000000      1586.534000        42.636870      1571.605000       -77.322500      1590.907000        41.927410        59.989970        -0.063423
1643124172.0000    310370.000000       -37.222130    312198.900000        82.745650    311988.000000      -156.938300      1587.347000        38.668470      1571.958000       -81.300210      1592.079000        37.953970        59.988570         0.085060
1643124173.0000    310342.200000       -42.012730    312170.600000        77.977510    311870.800000      -161.716200      1588.017000        33.916180      1573.689000       -86.038270      1592.002000        33.224190        59.984520        -0.130501
1643124174.0000    310196.300000       -47.918190    312024.500000        72.047550    311841.500000      -167.632700      1591.554000        27.984650      1577.117000       -91.962150      1595.389000        27.293630        59.981010        -0.058411
1643124175.0000    310354.000000       -54.518770    312144.800000        65.470750    311861.100000      -174.227900      1589.576000        21.416120      1574.440000       -98.537730      1593.619000        20.698390        59.980800         0.022263
1643124176.0000    310297.000000       -62.003370    311987.800000        57.994140    311716.700000       178.276000      1590.079000        13.899670      1574.810000      -106.048500      1594.267000        13.173110        59.977920        -0.164522
1643124177.0000    310440.400000       -69.751640    312224.600000        50.214720    312055.600000       170.524900      1588.638000         6.108066      1573.281000      -113.840300      1592.745000         5.378247        59.977520        -0.177901
1643124178.0000    310206.100000       -77.772350    312007.900000        42.195430    311823.600000       162.508100      1591.764000        -1.886166      1577.259000      -121.813800      1594.971000        -2.593418        59.978480         0.275864
1643124179.0000    310273.500000       -86.566890    312109.500000        33.427190    311785.400000       153.732500      1592.484000       -10.657420      1577.683000      -130.598000      1596.003000       -11.363280        59.975800         0.091518
