Terminal: LT 500  JANAUBA 3 - P. JUSCELINO C1
Tensão base: 500 kV
SOC inicial: 1643124120
SOC final: 1643124179
Taxa: 1 fasores/s
Total de frames faltantes: - 

Tempo_(SOC)           VA_mod_(V)     VA_ang_(graus)     VB_mod_(V)     VB_ang_(graus)     VC_mod_(V)     VC_ang_(graus)     IA_mod_(A)     IA_ang_(graus)     IB_mod_(A)     IB_ang_(graus)     IC_mod_(A)     IC_ang_(graus)     Frequência        Delta_Freq     Faltante
1643124120.0000    310355.900000       -40.452230    310115.500000      -160.489700    309229.100000        79.949540       225.869200        16.072180       231.099500      -106.417200       233.220700       133.375900        59.974710        -0.007324
1643124121.0000    310341.800000       -49.486090    310128.800000      -169.514600    309237.100000        70.916050       226.449400         6.992705       231.142800      -115.632700       233.414600       124.296900        59.973130        -0.045547
1643124122.0000    310296.700000       -58.936660    310094.200000      -178.970600    309182.900000        61.457940       226.718300        -2.481453       230.850800      -125.052700       233.703900       114.726600        59.974010         0.063858
1643124123.0000    310276.400000       -68.926540    310033.300000       171.037800    309138.800000        51.470810       226.256000       -12.517590       230.832400      -135.012500       233.288200       104.723300        59.972660         0.032730
1643124124.0000    310324.900000       -79.253920    310103.700000       160.711800    309197.500000        41.142600       226.371000       -22.686690       231.204300      -145.396100       233.458100        94.600830        59.971120        -0.013962
1643124125.0000    310209.800000       -89.888880    310045.900000       150.083100    309120.300000        30.508760       225.961100       -33.391780       230.649800      -155.922000       233.274500        83.861950        59.969710         0.015564
1643124126.0000    310256.100000      -101.035900    310056.800000       138.925700    309128.900000        19.362110       226.454900       -44.534080       230.498800      -167.178200       233.126800        72.665540        59.967630        -0.032730
1643124127.0000    310246.100000      -112.610500    310067.400000       127.353600    309137.300000         7.786103       226.271300       -56.143430       231.034000      -178.692700       233.266700        61.078220        59.966960        -0.011673
1643124128.0000    310390.200000      -124.001000    310182.400000       115.963800    309266.600000        -3.602106       225.575400       -67.417640       230.430500       169.982600       232.589800        49.884800        59.971130         0.107575
1643124129.0000    310215.500000      -135.188000    310016.500000       104.772700    309083.900000       -14.790110       225.969100       -78.711880       231.093600       158.541900       232.792600        38.432180        59.968570         0.003662
1643124130.0000    310252.100000      -146.675000    310043.600000        93.287290    309123.200000       -26.280050       226.219400       -90.210980       230.681400       147.169500       232.721100        27.139800        59.967540         0.008240
1643124131.0000    310169.100000      -158.163300    309970.700000        81.797170    309022.800000       -37.770440       225.640400      -101.743000       230.925000       135.688900       233.000000        15.521990        59.966230        -0.083084
1643124132.0000    310122.100000      -170.256200    309890.100000        69.706990    308982.600000       -49.854200       225.477700      -114.092100       230.259000       123.404600       232.296400         3.319140        59.965570        -0.012589
1643124133.0000    310166.600000       176.635600    309929.000000        56.590370    308972.400000       -62.967220       226.294400      -127.050700       231.132800       110.416900       232.906800        -9.771619        59.963220         0.029526
1643124134.0000    310223.100000       163.005600    309990.800000        42.961050    309030.500000       -76.598110       225.383600      -140.487600       230.953300        96.840000       232.422800       -23.474940        59.961690        -0.018311
1643124135.0000    310157.300000       148.841400    309916.500000        28.795750    308981.100000       -90.762840       225.154200      -154.920200       230.614900        82.531860       232.634600       -37.671100        59.959110        -0.021973
1643124136.0000    310230.500000       134.978900    310043.500000        14.940020    309095.800000      -104.627000       225.604800      -168.464100       230.447800        68.880670       232.372400       -51.373180        59.960370         0.028381          *
1643124137.0000    310201.000000       120.363700    309985.500000         0.326876    309055.900000      -119.237800       226.105800       176.563800       231.156200        53.872970       233.166100       -66.101070        59.962280         0.036392
1643124138.0000    310123.200000       107.101400    309918.900000       -12.933620    308997.600000      -132.500800       225.699400       163.172400       230.973800        40.579250       232.980300       -79.687560        59.963570         0.013275
1643124139.0000    310200.200000        94.222050    309995.000000       -25.810820    309086.300000      -145.381800       226.000700       150.384100       230.917000        27.839950       232.907700       -92.326050        59.965090         0.047836
1643124140.0000    310108.800000        81.787100    309892.400000       -38.247230    308990.900000      -157.812000       225.881400       137.714900       231.027200        15.272980       232.877000      -104.862400        59.964900        -0.000229
1643124141.0000    310130.000000        69.681880    309892.100000       -50.353710    308987.800000      -169.916700       225.867500       125.834100       231.035900         3.162747       232.468600      -116.907800        59.966350         0.033646
1643124142.0000    310078.200000        58.028900    309889.700000       -62.000150    308997.300000       178.429300       226.419900       114.080600       231.175100        -8.563343       233.211100      -128.601000        59.968200        -0.009155
1643124143.0000    310133.500000        46.820860    309927.500000       -73.212640    309029.900000       167.220500       225.537400       102.907200       231.413600       -19.624660       233.400400      -139.760700        59.971000         0.036850
1643124144.0000    310133.600000        36.262590    309916.500000       -83.765790    309062.300000       156.665700       226.401900        92.482900       230.842000       -30.112380       233.151000      -150.308500        59.971730         0.007095
1643124145.0000    310035.600000        26.303400    309807.900000       -93.729230    308926.000000       146.705900       225.979600        82.290560       231.026600       -40.236780       233.038100      -160.320700        59.969410        -0.146713
1643124146.0000    310058.100000        16.629250    309848.000000      -103.401600    308956.800000       137.030600       226.551400        72.691650       231.604900       -49.928610       233.275900      -169.989700        59.972590        -0.027237
1643124147.0000    310040.300000         7.153759    309892.100000      -112.893200    308898.300000       127.537200       227.039200        63.185500       231.402800       -59.438150       233.531400      -179.638100        59.974730         0.065689
1643124148.0000    310080.200000        -2.363332    309958.600000      -122.412700    308940.700000       118.017400       225.995500        53.673370       231.019400       -68.917220       233.350400       170.860100        59.975700         0.095444
1643124149.0000    310153.000000       -11.442800    309970.500000      -131.488900    308976.300000       108.942800       226.325000        44.671940       231.888600       -77.884890       233.893100       161.907500        59.975800         0.026779
1643124150.0000    310208.800000       -20.010330    310054.900000      -140.059600    309054.600000       100.373200       226.656700        36.095000       231.652600       -86.336070       233.976600       153.417700        59.976640        -0.000458
1643124151.0000    310258.200000       -27.628440    310088.100000      -147.681200    309082.100000        92.752060       226.418500        28.775600       231.668700       -93.871460       233.362100       145.975500        59.979870         0.026550
1643124152.0000    310177.700000       -34.469660    309970.100000      -154.523900    308975.800000        85.916820       226.510300        21.805660       231.134600      -100.776900       232.898100       139.006600        59.981840         0.010986
1643124153.0000    310256.100000       -40.949680    310062.100000      -161.001900    309060.500000        79.439770       226.211700        15.487100       231.537400      -107.134500       233.240400       132.593100        59.982500         0.016708
1643124154.0000    310376.700000       -47.005810    310173.300000      -167.060600    309170.000000        73.379880       226.556500         9.469841       231.752800      -113.031300       233.643400       126.638100        59.985370         0.050125
1643124155.0000    310393.300000       -52.025210    310184.700000      -172.075100    309192.200000        68.367070       226.532400         4.372581       231.723900      -118.180100       234.231200       121.621100        59.987920         0.061798
1643124156.0000    310345.900000       -56.326170    310150.800000      -176.379000    309153.300000        64.058960       226.848600         0.005979       232.004600      -122.584200       233.753200       117.252700        59.988920        -0.028381
1643124157.0000    310291.800000       -60.065060    310080.300000       179.887500    309106.400000        60.327700       227.022300        -3.854195       232.128100      -126.505300       234.264700       113.462100        59.989450        -0.024261
1643124158.0000    310425.400000       -63.586180    310209.400000       176.364600    309226.700000        56.805170       227.068200        -7.192355       231.871200      -129.784500       233.556500       110.000800        59.991860        -0.004349
1643124159.0000    310444.400000       -66.093540    310249.200000       173.857900    309269.100000        54.296570       226.732000        -9.550998       231.571400      -132.152900       233.764600       107.587000        59.992850        -0.035477
1643124160.0000    310432.900000       -67.700470    310170.800000       172.243400    309197.000000        52.693520       227.019000       -11.372000       232.008300      -133.893300       233.966200       106.034000        59.996730        -0.005722
1643124161.0000    310522.000000       -68.780350    310291.200000       171.170200    309307.200000        51.617300       227.587700       -12.352390       232.037600      -134.893100       234.275400       104.921800        59.998680         0.044403
1643124162.0000    310485.900000       -69.195570    310251.700000       170.748000    309246.800000        51.200160       227.770700       -12.836820       232.145500      -135.490300       234.228900       104.408600        59.998160        -0.062714
1643124163.0000    310453.300000       -69.185810    310199.800000       170.760300    309217.600000        51.208440       226.986500       -12.827800       232.808000      -135.367600       233.674400       104.459200        59.999740        -0.068665
1643124164.0000    310457.800000       -69.204350    310238.500000       170.740400    309223.500000        51.184680       227.124300       -12.861630       232.766000      -135.312800       233.633400       104.440300        60.000270         0.021286
1643124165.0000    310512.300000       -69.408640    310326.200000       170.536200    309310.300000        50.974460       226.670900       -12.939090       232.185300      -135.423100       233.653300       104.337800        60.002350         0.237579
1643124166.0000    310339.300000       -69.570640    310168.200000       170.388200    309200.500000        50.818050       226.932700       -13.239670       231.463200      -135.801900       234.015400       104.062400        60.003520         0.173035
1643124167.0000    310391.900000       -70.466610    310116.400000       169.498600    309216.500000        49.940730       227.212400       -14.231280       231.626600      -136.808800       234.114500       102.985700        59.996450        -0.030670
1643124168.0000    310462.100000       -72.066150    310231.000000       167.902900    309342.000000        48.340080       227.046800       -15.506850       231.943200      -138.149200       233.911700       101.762900        59.996520         0.064545
1643124169.0000    310400.900000       -73.862430    310126.100000       166.102500    309257.200000        46.544690       226.930300       -17.466730       231.474100      -140.048700       233.515100        99.923710        59.994150         0.009613
1643124170.0000    310428.500000       -76.494370    310144.600000       163.473600    309278.600000        43.918540       227.082100       -20.000540       231.414100      -142.566600       233.835600        97.359070        59.989960        -0.100937
1643124171.0000    310405.700000       -79.586980    310154.600000       160.382100    309274.900000        40.818950       226.905100       -23.381490       231.711400      -145.831300       234.084900        94.160680        59.991620         0.020599
1643124172.0000    310380.200000       -83.456500    310096.900000       156.512500    309232.000000        36.956810       227.162700       -27.222540       231.808700      -149.803100       233.742400        90.172970        59.987940        -0.001831
1643124173.0000    310415.300000       -88.271580    310162.000000       151.696600    309286.200000        32.137660       226.886600       -31.886750       231.099400      -154.457400       233.619600        85.496000        59.986480         0.062256
1643124174.0000    310272.300000       -93.907650    310043.100000       146.062100    309140.400000        26.497280       226.259300       -37.604800       230.798600      -160.193900       233.141400        79.654500        59.982090        -0.081482
1643124175.0000    310401.700000      -100.657200    310129.600000       139.306800    309227.900000        19.747900       226.291900       -44.203250       230.518900      -167.007700       232.666700        73.087090        59.981630         0.112610
1643124176.0000    310415.200000      -108.160100    310136.200000       131.808400    309268.600000        12.247340       226.328100       -51.799820       230.600400      -174.443600       232.821200        65.581240        59.979270         0.015335
1643124177.0000    310461.300000      -116.156700    310221.700000       123.814500    309349.500000         4.248981       226.320200       -59.722550       230.574800       177.754100       233.007500        57.573020        59.978650         0.070038
1643124178.0000    310436.800000      -124.027000    310173.400000       115.939800    309279.800000        -3.619483       226.905200       -67.534640       231.051500       169.899000       233.136800        49.797690        59.978340         0.045547
1643124179.0000    310328.500000      -132.627600    310094.300000       107.341100    309208.400000       -12.221950       226.680500       -76.455520       230.560300       161.067800       233.078300        40.969540        59.974360         0.003662
