Terminal: LT 500  JUAZEIRO III - OUROLANDIA II CF1
Tensão base: 500 kV
SOC inicial: 1643124120
SOC final: 1643124179
Taxa: 1 fasores/s
Total de frames faltantes: - 

Tempo_(SOC)           VA_mod_(V)     VA_ang_(graus)     VB_mod_(V)     VB_ang_(graus)     VC_mod_(V)     VC_ang_(graus)     IA_mod_(A)     IA_ang_(graus)     IB_mod_(A)     IB_ang_(graus)     IC_mod_(A)     IC_ang_(graus)     Frequência        Delta_Freq     Faltante
1643124120.0000    306425.000000       -21.128660    307197.700000      -141.229400    306385.700000        98.762500       760.670700        -3.986759       778.982500      -124.261600       764.503700       115.243000        59.974960         0.001144
1643124121.0000    306363.900000       -30.130300    307166.000000      -150.224400    306339.700000        89.761900       761.069900       -12.822200       780.380200      -133.347000       763.612400       106.231200        59.974080         0.002518
1643124122.0000    306315.800000       -39.556690    307129.300000      -159.655400    306288.900000        80.329660       762.067000       -22.341340       782.156600      -142.638300       765.802300        96.837560        59.973080        -0.002289
1643124123.0000    306338.800000       -49.547200    307130.500000      -169.649500    306277.800000        70.339220       761.975000       -32.383080       782.023300      -152.721900       765.635800        86.829090        59.972110         0.053558
1643124124.0000    306380.700000       -59.914050    307177.300000       179.987200    306336.500000        59.975400       760.705700       -42.766980       779.696200      -163.093000       764.841400        76.420680        59.971310        -0.008469
1643124125.0000    306335.600000       -70.542270    307151.700000       169.362700    306326.800000        49.346330       761.214300       -53.329030       779.542500      -173.668400       765.062500        65.845690        59.970460         0.024490
1643124126.0000    306331.000000       -81.689100    307121.500000       158.207200    306271.600000        38.197810       761.875400       -64.546260       780.686200       175.188200       765.308300        54.656240        59.968720         0.008011
1643124127.0000    306298.600000       -93.244000    307096.800000       146.656500    306263.100000        26.643100       761.785500       -76.083870       781.991700       163.521300       765.866700        43.194310        59.966640         0.008240
1643124128.0000    306447.800000      -104.739300    307236.800000       135.161000    306417.700000        15.149340       758.780900       -87.531810       779.124300       152.154500       763.138200        31.710250        59.970000         0.063400
1643124129.0000    306363.600000      -115.842800    307144.800000       124.055000    306311.800000         4.044938       760.966900       -98.663550       780.603700       140.980100       765.064900        20.486370        59.968810         0.002289
1643124130.0000    306317.000000      -127.338000    307133.600000       112.561200    306306.200000        -7.452947       762.013800      -110.111100       782.019500       129.561900       765.466900         9.100724        59.967240        -0.010986
1643124131.0000    306271.700000      -138.836900    307068.800000       101.061800    306208.700000       -18.950580       761.120800      -121.644900       781.432600       118.010300       764.376000        -2.381344        59.967440        -0.037537
1643124132.0000    306266.700000      -150.871800    307051.400000        89.029780    306242.500000       -30.981180       763.125700      -133.712500       782.909200       106.014900       767.111100       -14.507610        59.965310         0.015106
1643124133.0000    306261.500000      -164.009900    307047.700000        75.890950    306231.500000       -44.120410       762.501200      -146.806400       781.233200        92.859860       766.644800       -27.593190        59.962810         0.039597
1643124134.0000    306316.300000      -177.679600    307091.300000        62.222230    306262.500000       -57.789770       761.887000      -160.431500       780.811800        79.219890       765.608500       -41.274130        59.962180         0.017166
1643124135.0000    306279.000000       168.193700    307056.700000        48.095520    306247.400000       -71.913170       761.468700      -174.577600       782.527600        65.101430       766.504800       -55.365060        59.959440        -0.021286
1643124136.0000    306356.200000       153.563000    307147.500000        33.460600    306303.600000       -86.547390       760.231900       170.823600       780.541600        50.451450       764.409200       -70.047670        59.959770        -0.003662
1643124137.0000    306339.900000       139.725700    307151.400000        19.626060    306293.800000      -100.387900       760.798200       156.951800       780.162200        36.646500       764.618300       -83.897300        59.962050        -0.003204
1643124138.0000    306336.500000       126.508500    307097.500000         6.409655    306268.400000      -113.599900       762.810900       143.648800       781.064000        23.332690       766.615400       -97.121500        59.963820        -0.001602
1643124139.0000    306343.300000       113.582800    307117.100000        -6.518626    306302.300000      -126.529100       761.713400       130.815300       780.379000        10.409420       766.418400      -110.044200        59.964650         0.018082
1643124140.0000    306278.100000       101.218800    307077.300000       -18.878290    306245.100000      -138.892600       763.416100       118.398500       782.390500        -2.053192       768.353800      -122.484300        59.965440        -0.005722
1643124141.0000    306312.400000        89.068840    307114.300000       -31.029210    306286.700000      -151.044100       761.948800       106.291800       781.644100       -14.082450       766.519800      -134.587100        59.966720        -0.003204
1643124142.0000    306319.500000        77.463030    307135.700000       -42.636600    306292.800000      -162.652400       763.773600        94.596330       782.866100       -25.753510       767.520100      -146.194600        59.968110         0.019913
1643124143.0000    306371.900000        66.199750    307157.000000       -53.898880    306328.900000      -173.909700       761.144700        83.422420       780.456100       -36.892680       765.062700      -157.365700        59.970140         0.019226
1643124144.0000    306340.800000        55.638320    307147.600000       -64.452630    306306.800000       175.529000       761.683900        72.780300       780.520300       -47.537730       764.771400      -167.983400        59.971670         0.003662
1643124145.0000    306281.500000        45.736720    307077.100000       -74.357610    306255.200000       165.626900       763.840000        62.824830       782.424100       -57.424920       766.256600      -177.910900        59.971010        -0.098419
1643124146.0000    306294.200000        36.072950    307091.900000       -84.024260    306255.400000       155.963500       763.984300        53.328430       781.717500       -67.138750       767.542500       172.470700        59.973630        -0.005951
1643124147.0000    306299.100000        26.592560    307051.000000       -93.505740    306254.400000       146.480600       763.985200        43.697630       783.380900       -76.571530       768.001800       162.962000        59.974380         0.050583
1643124148.0000    306297.300000        17.056120    307100.800000      -103.051900    306226.100000       136.938400       762.976700        34.244870       783.045600       -86.108830       766.617200       153.430800        59.974410         0.039825
1643124149.0000    306366.100000         7.942968    307128.500000      -112.163900    306267.600000       127.829500       761.849200        25.150880       781.445300       -95.213720       764.528900       144.326600        59.975990         0.019455
1643124150.0000    306388.500000        -0.643684    307157.300000      -120.746800    306314.400000       119.245400       761.287700        16.550340       780.611800      -103.818200       765.118200       135.751200        59.976900        -0.007553
1643124151.0000    306440.800000        -8.320172    307225.300000      -128.431000    306338.800000       111.565500       759.850900         8.914789       779.802100      -111.451800       762.428600       128.021700        59.979610        -0.003204
1643124152.0000    306375.000000       -15.113940    307164.600000      -135.224100    306291.900000       104.773500       761.965300         2.074728       780.568100      -118.293500       764.467700       121.255800        59.981890         0.016708
1643124153.0000    306399.100000       -21.619660    307176.800000      -141.724700    306328.400000        98.267850       761.214200        -4.482891       779.954000      -124.807900       764.632800       114.726500        59.982300         0.025406
1643124154.0000    306438.800000       -27.699780    307199.600000      -147.804900    306349.700000        92.188290       760.081300       -10.448820       778.359600      -130.844400       764.082000       108.669400        59.985090         0.025635
1643124155.0000    306455.400000       -32.706710    307232.300000      -152.809700    306382.400000        87.183420       760.535200       -15.485150       780.497600      -135.869200       763.622600       103.668800        59.987140         0.037308
1643124156.0000    306438.400000       -37.004410    307225.300000      -157.109300    306349.300000        82.881790       758.297500       -19.814860       778.579400      -140.200400       763.792200        99.359890        59.989440         0.027924
1643124157.0000    306377.900000       -40.693590    307151.600000      -160.799500    306286.500000        79.194180       760.370400       -23.518080       779.009200      -143.808600       764.371000        95.700320        59.989770        -0.027466
1643124158.0000    306423.400000       -44.281770    307214.100000      -164.387900    306352.100000        75.602290       758.537000       -26.954210       778.275900      -147.353600       763.026600        92.203060        59.991600         0.018768
1643124159.0000    306486.200000       -46.854740    307259.800000      -166.961000    306401.900000        73.032790       756.538300       -29.552320       775.652200      -149.930400       758.811700        89.659070        59.993530        -0.021515
1643124160.0000    306443.800000       -48.389050    307229.200000      -168.497700    306343.300000        71.496170       757.727200       -31.070820       776.997400      -151.561200       761.214100        87.957120        59.997600         0.017166
1643124161.0000    306518.800000       -49.512750    307307.000000      -169.618600    306456.400000        70.375080       757.327800       -32.270210       776.455100      -152.654700       759.749500        86.882450        59.998500         0.066376
1643124162.0000    306490.900000       -49.874610    307236.600000      -169.977700    306420.300000        70.017570       757.905200       -32.592540       777.670300      -152.964000       761.539300        86.567640        59.999340        -0.016479
1643124163.0000    306450.100000       -49.874320    307234.100000      -169.980900    306386.800000        70.014230       758.252800       -32.677190       777.348500      -153.003700       761.782700        86.473310        60.001180        -0.024261
1643124164.0000    306440.600000       -49.887430    307224.400000      -169.992100    306369.800000        70.000860       758.076500       -32.644290       778.662200      -153.013800       763.031400        86.471170        59.999790         0.020599
1643124165.0000    306514.700000       -50.159210    307291.200000      -170.270300    306407.200000        69.723770       757.117100       -32.909210       776.904400      -153.278200       760.564300        86.317810        59.998980         0.060196
1643124166.0000    306425.200000       -50.257340    307205.800000      -170.362700    306341.800000        69.629420       758.702600       -33.069470       778.857100      -153.383500       762.593300        86.177440        60.001590         0.108490
1643124167.0000    306376.100000       -51.125230    307158.100000      -171.220500    306343.500000        68.764880       759.192500       -33.874160       778.482300      -154.145300       762.100100        85.294760        59.997480         0.076447
1643124168.0000    306448.600000       -52.835200    307229.400000      -172.932000    306399.600000        67.054060       755.187200       -35.519130       774.991900      -155.842200       759.157000        83.695880        59.995790         0.046463
1643124169.0000    306468.000000       -54.607600    307241.800000      -174.710100    306396.500000        65.281330       756.172200       -37.321370       774.711000      -157.667200       759.688400        81.863430        59.994660         0.022430
1643124170.0000    306449.000000       -57.243790    307226.000000      -177.341000    306417.300000        62.646950       756.245900       -39.902210       775.988300      -160.407200       759.623500        79.255210        59.991440        -0.052414
1643124171.0000    306435.900000       -60.307540    307228.000000       179.595900    306397.800000        59.584450       757.679700       -43.018600       776.593400      -163.413100       760.407200        76.149250        59.991490         0.063629
1643124172.0000    306402.300000       -64.136340    307165.500000       175.766700    306370.600000        55.757780       758.505400       -46.863610       777.162000      -167.246900       762.332300        72.301190        59.987380        -0.028381
1643124173.0000    306407.100000       -69.003430    307204.500000       170.899400    306352.800000        50.889090       758.299100       -51.611990       776.180700      -172.072800       760.548900        67.523670        59.986740         0.087891
1643124174.0000    306370.900000       -74.593250    307170.800000       165.306200    306322.800000        45.293870       759.457600       -57.264790       777.390600      -177.741200       762.149800        61.940320        59.983340        -0.017624
1643124175.0000    306414.900000       -81.379040    307212.200000       158.522300    306369.800000        38.512020       759.143500       -64.118120       777.868500       175.538500       762.377300        55.052640        59.979560         0.024261
1643124176.0000    306413.800000       -88.886090    307219.200000       151.015200    306374.300000        31.007000       758.147000       -71.577770       777.623100       168.046900       762.414400        47.577040        59.978790         0.011215
1643124177.0000    306443.500000       -96.773080    307255.300000       143.127600    306406.400000        23.117330       757.519200       -79.470930       777.348100       160.050200       761.638400        39.665840        59.977000        -0.043716          *
1643124178.0000    306473.300000      -104.768700    307241.400000       135.128800    306405.400000        15.122760       758.791200       -87.533510       777.979400       152.069800       761.991500        31.640280        59.978100         0.022202
1643124179.0000    306320.300000      -113.284400    307137.900000       126.615800    306293.100000         6.601437       761.372500       -96.054660       780.852900       143.623500       765.399800        23.113230        59.974400         0.005951
