Terminal: LT 500  OUROLANDIA II - JUAZEIRO III CF1
Tensão base: 500 kV
SOC inicial: 1643124120
SOC final: 1643124179
Taxa: 1 fasores/s
Total de frames faltantes: - 

Tempo_(SOC)           VA_mod_(V)     VA_ang_(graus)     VB_mod_(V)     VB_ang_(graus)     VC_mod_(V)     VC_ang_(graus)     IA_mod_(A)     IA_ang_(graus)     IB_mod_(A)     IB_ang_(graus)     IC_mod_(A)     IC_ang_(graus)     Frequência        Delta_Freq     Faltante
1643124120.0000    308278.900000       -28.022590    308788.500000      -148.035600    307591.300000        91.954440       722.275200       158.173100       739.591200        38.006040       726.639600       -82.714260        59.975060         0.003204
1643124121.0000    308239.900000       -37.032020    308776.900000      -157.034700    307579.600000        82.946560       722.567300       149.233200       738.779900        29.111590       727.520600       -91.625530        59.973780        -0.015564
1643124122.0000    308194.000000       -46.472390    308745.000000      -166.481800    307519.200000        73.500530       723.042800       139.819600       742.699100        19.585500       728.554700      -101.009900        59.973960         0.056763
1643124123.0000    308235.100000       -56.459770    308755.400000      -176.473400    307521.300000        63.513640       723.776400       129.837100       740.813500         9.617655       728.672400      -111.124000        59.971830         0.038452
1643124124.0000    308248.800000       -66.816540    308773.600000       173.172400    307559.400000        53.157900       723.108000       119.368800       739.622400        -0.759356       727.721600      -121.351000        59.971000        -0.015793
1643124125.0000    308202.800000       -77.450860    308763.100000       162.544100    307554.200000        42.522720       723.247600       108.917000       740.909700       -11.409960       728.342100      -131.992300        59.970390         0.020142
1643124126.0000    308212.400000       -88.596850    308735.000000       151.391100    307514.600000        31.379070       722.849400        97.754620       740.032200       -22.567740       727.799700      -143.189800        59.969060         0.015335
1643124127.0000    308208.900000      -100.160800    308734.700000       139.827900    307524.400000        19.813190       723.909100        86.166290       740.945900       -34.049630       728.758800      -154.696800        59.966140        -0.018768
1643124128.0000    308293.500000      -111.624700    308841.200000       128.366600    307642.300000         8.353745       721.231000        74.652130       739.122300       -45.656400       725.963900      -166.291600        59.970330         0.075302
1643124129.0000    308229.500000      -122.748700    308743.500000       117.240000    307537.100000        -2.774374       722.798300        63.521480       740.304200       -56.771300       728.248900      -177.455000        59.969360         0.005722
1643124130.0000    308202.700000      -134.247900    308763.000000       105.739500    307546.300000       -14.274810       722.962700        52.079630       740.623600       -68.183400       727.514800       171.161700        59.967460         0.018997
1643124131.0000    308169.300000      -145.744800    308701.900000        94.242040    307475.800000       -25.770860       722.530000        40.552650       740.899600       -79.707730       727.542500       159.689900        59.966530        -0.079193
1643124132.0000    308184.700000      -157.795400    308704.600000        82.197960    307504.900000       -37.816200       725.030100        28.517100       742.953100       -91.588390       729.809800       147.715300        59.965570         0.018082
1643124133.0000    308184.700000      -170.925000    308696.200000        69.064220    307491.800000       -50.945980       724.835300        15.448140       741.369800      -104.812000       728.064300       134.573700        59.963120         0.038223
1643124134.0000    308218.900000       175.418300    308726.000000        55.410300    307531.200000       -64.601520       722.621600         1.757893       739.506900      -118.507100       727.429000       120.807000        59.961330        -0.029068
1643124135.0000    308197.500000       161.283300    308695.100000        41.272760    307493.500000       -78.737140       722.991700       -12.390790       741.024000      -132.622400       728.271500       106.749000        59.959920         0.007324
1643124136.0000    308242.800000       146.667700    308760.200000        26.654650    307533.900000       -93.355420       721.149700       -27.078740       739.619400      -147.260400       726.892600        92.103780        59.959870        -0.007324
1643124137.0000    308237.300000       132.822900    308772.800000        12.812850    307548.000000      -107.205100       722.458200       -40.852490       739.826900      -161.137500       727.188300        78.302840        59.961870         0.014191
1643124138.0000    308196.100000       119.589900    308727.500000        -0.421846    307516.200000      -120.433900       724.259500       -54.170340       742.158900      -174.333100       728.690900        65.002340        59.963690         0.010529
1643124139.0000    308235.600000       106.674300    308757.600000       -13.331780    307556.300000      -133.348200       722.147800       -67.029750       740.945300       172.799300       727.788400        52.068980        59.964780         0.027008
1643124140.0000    308167.500000        94.284870    308700.500000       -25.722060    307483.800000      -145.738700       725.968400       -79.422920       743.239600       160.418400       730.010400        39.801820        59.965170        -0.000458
1643124141.0000    308205.800000        82.154340    308744.400000       -37.855290    307545.200000      -157.872500       723.430300       -91.518070       740.120200       148.161800       728.151400        27.508250        59.966230        -0.007095
1643124142.0000    308174.700000        70.536710    308743.900000       -49.470690    307537.800000      -169.490600       725.604100      -103.105300       742.160000       136.640500       730.795400        15.921700        59.968220         0.003662
1643124143.0000    308246.800000        59.292740    308780.800000       -60.717240    307583.600000       179.270400       724.008800      -114.418600       740.948000       125.270900       727.843900         4.714325        59.969970         0.009384
1643124144.0000    308193.300000        48.729070    308755.700000       -71.272950    307573.000000       168.709000       724.040600      -124.957500       740.912700       114.841800       728.272200        -5.819217        59.971950         0.028152
1643124145.0000    308154.200000        38.812060    308679.400000       -81.194370    307496.000000       158.788000       725.716200      -134.921300       741.931700       104.906900       729.746200       -15.657340        59.971350        -0.092239
1643124146.0000    308161.700000        29.142560    308702.100000       -90.864560    307507.900000       149.123200       724.767900      -144.523400       743.478100        95.194730       729.957600       -25.337240        59.973740         0.012131
1643124147.0000    308197.800000        19.662300    308734.900000      -100.350100    307509.000000       139.634300       726.423700      -154.007200       743.659900        85.701310       730.855500       -34.931550        59.974410         0.054245
1643124148.0000    308213.800000        10.130300    308773.700000      -109.886300    307501.000000       130.099200       725.317300      -163.514800       742.563500        76.297460       729.329000       -44.326160        59.974610         0.044403
1643124149.0000    308231.900000         1.031373    308770.900000      -118.984200    307530.000000       121.006300       722.894300      -172.660200       740.038700        67.069210       728.331100       -53.589680        59.975270        -0.006409
1643124150.0000    308266.000000        -7.548644    308807.100000      -127.565400    307556.800000       112.424200       723.639700       178.770700       740.962000        58.477900       727.746000       -62.103630        59.976910        -0.006409
1643124151.0000    308288.600000       -15.212100    308826.400000      -135.234400    307573.300000       104.757400       722.421800       171.082100       738.850500        50.801030       725.797100       -69.879290        59.979720         0.016479
1643124152.0000    308240.600000       -22.026370    308770.200000      -142.046100    307520.100000        97.945910       724.089500       164.321600       742.054400        44.107140       727.855700       -76.738520        59.982040         0.017395
1643124153.0000    308265.400000       -28.523130    308779.000000      -148.538000    307557.300000        91.453750       722.584100       157.776800       740.237100        37.545970       727.630800       -83.163730        59.982320         0.016479
1643124154.0000    308281.800000       -34.593410    308819.200000      -154.610500    307581.800000        85.384540       721.773400       151.659100       739.371800        31.461040       726.654900       -89.209850        59.985660         0.062714
1643124155.0000    308309.900000       -39.598520    308801.000000      -159.614200    307586.700000        80.376910       722.508100       146.667100       738.788400        26.445990       725.974800       -94.219350        59.987190         0.029297
1643124156.0000    308277.300000       -43.894060    308819.300000      -163.911200    307577.300000        76.078720       720.274900       142.334600       738.519500        22.102090       725.999800       -98.515170        59.989960         0.040512
1643124157.0000    308215.600000       -47.592870    308759.400000      -167.610300    307504.600000        72.379220       722.265100       138.712100       739.112200        18.453020       727.079500      -102.187400        59.989190        -0.054474
1643124158.0000    308274.500000       -51.162370    308830.000000      -171.182600    307559.500000        68.811360       720.039100       135.105000       738.039900        14.932980       725.286400      -105.890500        59.991440         0.010300
1643124159.0000    308298.500000       -53.707510    308852.700000      -173.726000    307608.900000        66.261050       716.784700       132.513200       735.089200        12.244820       721.960100      -108.446600        59.993050        -0.044861
1643124160.0000    308288.200000       -55.267030    308801.000000      -175.286600    307551.800000        64.707850       720.549700       130.900800       737.981100        10.709260       724.189100      -110.016800        59.997420         0.015793
1643124161.0000    308336.600000       -56.376500    308873.800000      -176.396400    307628.600000        63.598660       717.655400       129.747900       736.596800         9.580161       723.807400      -111.128800        59.998570         0.064087
1643124162.0000    308312.100000       -56.750230    308817.600000      -176.766700    307598.400000        63.230850       719.193200       129.492700       737.113000         9.193061       723.782300      -111.421700        59.999100        -0.018539
1643124163.0000    308287.300000       -56.752370    308808.300000      -176.769400    307574.100000        63.222580       719.361800       129.441200       737.154200         9.261832       724.447000      -111.502100        60.001260        -0.031128
1643124164.0000    308292.300000       -56.774890    308831.300000      -176.788600    307572.200000        63.202040       721.166700       129.436500       738.731400         9.145814       725.898800      -111.470500        60.000500         0.043030
1643124165.0000    308368.200000       -57.022460    308882.400000      -177.044400    307638.500000        62.947140       717.929900       129.174000       735.229100         8.971855       723.312900      -111.774300        59.999600         0.111008
1643124166.0000    308245.700000       -57.141040    308789.500000      -177.156100    307568.200000        62.834590       719.961100       129.084800       737.570700         8.855485       725.939300      -111.735800        60.002390         0.141220
1643124167.0000    308251.300000       -58.010460    308753.100000      -178.018500    307597.400000        61.970760       720.786300       128.277400       738.325800         8.017526       725.427400      -112.680700        59.998000         0.088577
1643124168.0000    308281.700000       -59.685100    308807.200000      -179.693100    307640.800000        60.292980       716.040700       126.514100       734.470600         6.335572       722.006500      -114.294000        59.995720         0.035019
1643124169.0000    308285.700000       -61.466220    308796.200000       178.526900    307609.800000        58.516010       717.957500       124.685100       735.512200         4.512997       721.883600      -116.167900        59.994400         0.002518
1643124170.0000    308286.800000       -64.103660    308791.400000       175.889200    307612.500000        55.877780       717.632300       122.064200       735.242100         1.825698       722.745600      -118.805300        59.991330        -0.059509
1643124171.0000    308282.000000       -67.177220    308808.200000       172.816500    307615.800000        52.804750       718.896500       119.084900       736.332200        -1.227076       724.721100      -121.816800        59.991640         0.065689
1643124172.0000    308257.800000       -71.018420    308768.000000       168.975300    307589.600000        48.965990       719.767600       115.204100       737.175500        -4.948784       725.851500      -125.646200        59.987370        -0.020599
1643124173.0000    308289.800000       -75.870400    308804.100000       164.125800    307622.000000        44.114370       718.754500       110.396400       736.707600        -9.852584       722.541400      -130.501600        59.986720         0.064774
1643124174.0000    308231.000000       -81.477280    308754.200000       158.508700    307547.400000        38.499780       720.045700       104.657100       738.168600       -15.385500       725.262300      -136.119700        59.982880        -0.039139
1643124175.0000    308314.700000       -88.259350    308832.800000       151.731200    307634.500000        31.720440       720.260300        98.050860       738.508500       -22.174870       725.443800      -142.860500        59.980240         0.078506
1643124176.0000    308294.900000       -95.763470    308798.300000       144.226700    307611.200000        24.218320       719.777300        90.459430       737.274000       -29.759350       723.790500      -150.431300        59.979180         0.036392
1643124177.0000    308304.900000      -103.780300    308846.900000       136.212000    307645.300000        16.195670       719.334500        82.456660       736.965900       -37.702470       723.575400      -158.549000        59.978010         0.046463
1643124178.0000    308312.100000      -111.649300    308830.800000       128.338900    307611.500000         8.329693       720.096600        74.537500       738.132000       -45.691970       726.065900      -166.321400        59.979140         0.076904
1643124179.0000    308218.700000      -120.195600    308770.800000       119.795200    307541.700000        -0.219255       723.004300        66.151660       740.968000       -54.180870       727.992100      -174.705600        59.974580         0.027008
