Terminal: LT 525  ITA - S.SANTIAGO C2
Tensão base: 525 kV
SOC inicial: 1643124120
SOC final: 1643124179
Taxa: 1 fasores/s
Total de frames faltantes: - 

Tempo_(SOC)           VA_mod_(V)     VA_ang_(graus)     VB_mod_(V)     VB_ang_(graus)     VC_mod_(V)     VC_ang_(graus)     IA_mod_(A)     IA_ang_(graus)     IB_mod_(A)     IB_ang_(graus)     IC_mod_(A)     IC_ang_(graus)     Frequência        Delta_Freq     Faltante
1643124120.0000    308822.200000      -125.828800    309258.500000       114.027500    307710.700000        -6.023785      1341.086000        57.978110      1336.781000       -61.716360      1329.948000       177.667200        59.975460         0.008926
1643124121.0000    308752.300000      -134.951800    309176.200000       104.905200    307659.700000       -15.140920      1342.228000        48.880560      1339.068000       -70.858570      1330.734000       168.491000        59.973930        -0.052643
1643124122.0000    308771.800000      -144.391600    309215.300000        95.461070    307658.900000       -24.589810      1343.127000        39.465110      1339.388000       -80.213190      1332.288000       159.134700        59.973150         0.044174
1643124123.0000    308765.600000      -154.304100    309232.400000        85.580500    307814.000000       -34.488000      1340.727000        29.500460      1335.475000       -90.203930      1328.935000       149.200400        59.972120         0.012589
1643124124.0000    308843.900000      -164.489800    309280.100000        75.381710    307794.300000       -44.675770      1340.156000        19.313200      1336.370000      -100.370100      1328.922000       138.998900        59.972210         0.038910
1643124125.0000    308840.300000      -175.205700    309288.400000        64.642600    307692.500000       -55.404400      1340.270000         8.621498      1336.880000      -111.090700      1329.256000       128.284100        59.971150         0.102081
1643124126.0000    308793.700000       173.548400    309260.900000        53.423430    307792.300000       -66.640940      1341.278000        -2.624158      1336.020000      -122.330600      1328.856000       117.093100        59.968030        -0.005493
1643124127.0000    308706.000000       161.905600    309131.100000        41.783550    307698.400000       -78.273760      1343.382000       -14.292890      1338.149000      -134.009300      1331.988000       105.393800        59.967540         0.049896
1643124128.0000    308846.300000       150.766100    309294.200000        30.623490    307763.200000       -89.433070      1341.646000       -25.415090      1338.049000      -145.100500      1330.988000        94.244800        59.968990        -0.001144
1643124129.0000    308859.000000       139.174000    309264.200000        19.021530    307690.100000      -101.021600      1344.326000       -36.959940      1340.572000      -156.683300      1332.628000        82.666140        59.968280        -0.002975
1643124130.0000    308888.700000       127.915000    309319.800000         7.790502    307860.200000      -112.270900      1341.310000       -48.281310      1337.204000      -168.004600      1329.753000        71.368240        59.969180         0.040512
1643124131.0000    308688.500000       116.267600    309077.800000        -3.881837    307518.900000      -123.920700      1343.329000       -59.887960      1339.908000      -179.627700      1331.603000        59.735330        59.966800         0.021744
1643124132.0000    308722.700000       103.961200    309187.800000       -16.193350    307593.600000      -136.243000      1343.528000       -72.183920      1339.722000       168.109800      1332.597000        47.473310        59.966220         0.030212
1643124133.0000    308734.700000        91.018850    309227.400000       -29.121070    307677.400000      -149.181300      1343.501000       -85.143450      1339.442000       155.151500      1332.163000        34.518260        59.962240        -0.079880
1643124134.0000    308711.400000        77.479130    309100.600000       -42.681030    307486.300000      -162.713300      1343.274000       -98.674950      1340.025000       141.584900      1331.675000        20.939100        59.961620        -0.001602
1643124135.0000    308842.200000        63.218980    309256.800000       -56.924240    307725.200000      -176.970300      1343.057000      -112.942700      1338.726000       127.332900      1330.974000         6.709239        59.959610        -0.025635
1643124136.0000    308795.100000        48.725720    309265.000000       -71.415470    307723.900000       168.530600      1344.919000      -127.436600      1340.224000       112.864300      1333.238000        -7.760275        59.959180        -0.039139
1643124137.0000    308885.100000        34.660240    309284.500000       -85.477010    307784.200000       154.474400      1343.099000      -141.484900      1339.627000        98.801710      1332.046000       -21.827320        59.962020         0.024261
1643124138.0000    308943.600000        21.217810    309360.900000       -98.919560    307866.700000       141.030900      1344.256000      -154.941400      1340.144000        85.334010      1332.931000       -35.294370        59.964250         0.000000
1643124139.0000    308702.400000         8.496230    309178.700000      -111.656700    307552.100000       128.292700      1343.533000      -167.720200      1340.262000        72.567340      1332.491000       -48.076070        59.965660         0.038681
1643124140.0000    308759.800000        -4.108344    309226.300000      -124.233700    307733.200000       115.703600      1344.174000       179.672400      1339.431000        59.978870      1332.108000       -60.649380        59.966730         0.057678
1643124141.0000    308811.200000       -16.129570    309204.600000      -136.270800    307687.100000       103.686300      1343.699000       167.681100      1339.238000        47.970210      1331.838000       -72.651390        59.968090         0.045319
1643124142.0000    308737.500000       -27.906510    309150.700000      -148.043400    307621.500000        91.906090      1344.558000       155.914800      1339.710000        36.185240      1332.691000       -84.412660        59.968080         0.060425
1643124143.0000    308795.800000       -39.040370    309284.400000      -159.166500    307784.400000        80.768880      1343.372000       144.736600      1338.449000        25.036090      1332.130000       -95.582340        59.969140         0.004120
1643124144.0000    308903.200000       -49.532020    309287.700000      -169.674900    307789.000000        70.283080      1343.283000       134.280800      1339.279000        14.564080      1331.277000      -106.048700        59.971490        -0.000229
1643124145.0000    308797.100000       -59.709420    309199.800000      -179.856400    307652.200000        60.103030      1344.209000       124.131800      1340.840000         4.393499      1332.829000      -116.241900        59.972110        -0.010529
1643124146.0000    308788.000000       -69.349040    309195.200000       170.517300    307737.800000        50.468230      1344.008000       114.488300      1340.055000        -5.212445      1333.014000      -125.833300        59.974630         0.038452
1643124147.0000    308925.800000       -78.896480    309347.800000       160.963200    307818.900000        40.914440      1343.129000       104.959400      1338.946000       -14.728280      1331.302000      -135.371400        59.973070        -0.032272
1643124148.0000    308847.600000       -88.269130    309281.700000       151.585400    307709.100000        31.536870      1342.461000        95.558480      1337.978000       -24.135320      1331.679000      -144.765300        59.973800        -0.058823
1643124149.0000    308860.900000       -97.314990    309275.100000       142.537400    307708.100000        22.490160      1342.648000        86.535780      1339.006000       -33.178540      1331.612000      -153.816300        59.975430        -0.012589
1643124150.0000    308911.200000      -105.886100    309307.200000       133.964100    307750.400000        13.922960      1345.327000        77.962690      1341.087000       -41.742670      1333.836000      -162.399000        59.977410         0.011673
1643124151.0000    308710.800000      -113.431400    309138.100000       126.445000    307692.600000         6.387355      1346.488000        70.364270      1341.741000       -49.368450      1334.729000      -169.965400        59.979980         0.002060
1643124152.0000    308887.100000      -120.366700    309304.900000       119.500300    307806.400000        -0.557162      1344.945000        63.432240      1340.642000       -56.282420      1333.217000      -176.900200        59.981390        -0.011902
1643124153.0000    308899.500000      -126.777800    309369.600000       113.080200    307825.500000        -6.977619      1344.518000        57.088360      1340.528000       -62.623130      1333.038000       176.732700        59.983660         0.025864
1643124154.0000    308868.800000      -132.599000    309292.100000       107.253500    307717.200000       -12.795320      1344.461000        51.264050      1340.616000       -68.459000      1332.987000       170.925800        59.985120         0.017853
1643124155.0000    308750.700000      -137.756200    309221.400000       102.097000    307653.500000       -17.957830      1348.752000        46.081620      1345.007000       -73.607240      1337.838000       165.753900        59.988500         0.011902
1643124156.0000    308690.100000      -141.836700    309165.700000        98.036140    307679.000000       -22.027040      1346.180000        41.957260      1341.873000       -77.753690      1334.378000       161.634200        59.988410         0.013504
1643124157.0000    308866.800000      -145.780000    309321.000000        94.076730    307780.000000       -25.975760      1346.758000        38.071590      1343.165000       -81.626790      1335.305000       157.723300        59.990780         0.033875
1643124158.0000    308878.600000      -149.212300    309312.800000        90.649080    307787.200000       -29.404300      1346.776000        34.643780      1342.690000       -85.059840      1335.198000       154.312800        59.991890         0.016479
1643124159.0000    308756.100000      -151.616000    309204.100000        88.254490    307720.700000       -31.805890      1346.804000        32.233320      1343.201000       -87.462650      1335.810000       151.897400        59.993790        -0.012589
1643124160.0000    308850.400000      -153.395800    309268.900000        86.461590    307739.900000       -33.589040      1347.587000        30.470550      1343.614000       -89.248380      1335.812000       150.137500        59.997360        -0.002289
1643124161.0000    308771.500000      -154.287800    309226.100000        85.576360    307727.300000       -34.481720      1346.235000        29.584990      1342.402000       -90.116740      1335.303000       149.241500        59.997450        -0.029068
1643124162.0000    308711.900000      -154.907000    309128.800000        84.952510    307598.400000       -35.099490      1349.452000        28.969460      1345.709000       -90.746670      1337.604000       148.618400        59.997840        -0.047607
1643124163.0000    308689.800000      -155.016400    309059.000000        84.845760    307576.300000       -35.195970      1349.874000        28.915910      1345.820000       -90.809810      1338.041000       148.572300        60.000630         0.000458
1643124164.0000    308746.800000      -154.984200    309184.200000        84.871630    307636.600000       -35.182860      1348.640000        28.913020      1344.761000       -90.800660      1337.143000       148.576100        60.001020         0.014191
1643124165.0000    308809.900000      -154.950900    309277.700000        84.913980    307735.800000       -35.147630      1346.649000        28.949150      1342.458000       -90.748520      1335.359000       148.609500        59.999180        -0.004578
1643124166.0000    308661.300000      -155.386000    308974.700000        84.464030    307461.600000       -35.565020      1348.020000        28.501400      1344.703000       -91.235860      1335.733000       148.097700        59.997170        -0.040054
1643124167.0000    308633.100000      -156.363000    309161.500000        83.479230    307500.800000       -36.581310      1346.217000        27.462000      1343.283000       -92.215630      1335.669000       147.105000        59.999060         0.068207
1643124168.0000    308653.700000      -157.467600    309218.500000        82.372950    307548.400000       -37.689040      1345.121000        26.384900      1341.878000       -93.294620      1334.869000       146.026400        59.994610        -0.020828
1643124169.0000    308566.700000      -159.499400    309038.200000        80.389670    307642.400000       -39.681640      1348.502000        24.362360      1343.711000       -95.346910      1336.536000       144.049800        59.993850         0.024490
1643124170.0000    308630.900000      -161.981400    309018.700000        77.875560    307498.500000       -42.170590      1347.168000        21.888640      1343.247000       -97.847830      1335.202000       141.521700        59.992000         0.027008
1643124171.0000    308775.700000      -165.194800    309227.900000        74.653020    307639.300000       -45.401860      1345.501000        18.698130      1341.785000      -101.007200      1334.665000       138.336000        59.990450         0.000229
1643124172.0000    308675.100000      -169.161200    309046.100000        70.685970    307501.800000       -49.348800      1347.699000        14.732230      1344.061000      -105.011400      1335.611000       134.343300        59.987720         0.017395
1643124173.0000    308796.800000      -173.872100    309251.800000        65.985150    307706.300000       -54.072720      1344.586000        10.015180      1340.660000      -109.703200      1333.030000       129.646100        59.986530         0.024033
1643124174.0000    308643.600000      -179.818400    309158.700000        60.022650    307510.600000       -60.032570      1345.185000         4.025941      1342.130000      -115.638900      1335.126000       123.666800        59.981930        -0.039368
1643124175.0000    308739.300000       173.572100    309225.700000        53.433990    307680.300000       -66.627910      1345.642000        -2.547332      1341.564000      -122.247500      1334.515000       117.118300        59.980160        -0.036163
1643124176.0000    308781.400000       166.107200    309210.900000        45.972560    307720.600000       -74.087050      1344.437000        -9.999594      1340.354000      -129.692700      1332.777000       109.645100        59.977830        -0.020828
1643124177.0000    308703.700000       158.335300    309100.200000        38.178190    307504.300000       -81.860180      1345.851000       -17.824690      1342.310000      -137.543300      1334.494000       101.803000        59.977840        -0.047379
1643124178.0000    308690.500000       150.327200    309106.600000        30.186270    307578.700000       -89.860870      1345.728000       -25.813590      1342.246000      -145.529200      1334.615000        93.849630        59.977360         0.048294
1643124179.0000    308782.200000       141.552800    309238.700000        21.411610    307692.300000       -98.643110      1344.858000       -34.549480      1340.981000      -154.283800      1333.541000        85.093250        59.974960        -0.012589
