Terminal: LT 525  ITA - CAXIAS C1
Tensão base: 525 kV
SOC inicial: 1643124120
SOC final: 1643124179
Taxa: 1 fasores/s
Total de frames faltantes: - 

Tempo_(SOC)           VA_mod_(V)     VA_ang_(graus)     VB_mod_(V)     VB_ang_(graus)     VC_mod_(V)     VC_ang_(graus)     IA_mod_(A)     IA_ang_(graus)     IB_mod_(A)     IB_ang_(graus)     IC_mod_(A)     IC_ang_(graus)     Frequência        Delta_Freq     Faltante
1643124120.0000    304156.100000      -125.879900    306785.300000       113.969200    305009.800000        -6.062415       746.403600      -107.558900       740.341300       131.364200       735.846400        11.965130        59.975380         0.012817
1643124121.0000    304091.200000      -135.004200    306700.700000       104.844400    304938.400000       -15.182050       746.700200      -116.720200       741.295300       122.113200       735.689500         2.712035        59.974310        -0.032043
1643124122.0000    304095.200000      -144.442400    306764.800000        95.401510    304958.400000       -24.633200       747.170900      -126.142700       741.744500       112.785300       736.827900        -6.697568        59.973320         0.051727
1643124123.0000    304104.700000      -154.357400    306768.300000        85.520550    305103.300000       -34.530020       746.702600      -136.052800       739.360200       102.873800       735.551500       -16.451560        59.971810         0.012817
1643124124.0000    304196.200000      -164.540000    306822.800000        75.320140    305093.100000       -44.719280       746.711300      -146.182400       740.137300        92.730930       735.871100       -26.649310        59.971830         0.024719
1643124125.0000    304186.700000      -175.255400    306801.400000        64.582400    304996.400000       -55.444480       746.416200      -156.912200       741.067100        81.996410       735.894900       -37.444510        59.971570         0.125656
1643124126.0000    304128.400000       173.498000    306796.000000        53.362950    305081.300000       -66.682590       746.553300      -168.181600       739.447900        70.743860       735.439300       -48.594390        59.967850        -0.008011
1643124127.0000    304038.000000       161.858200    306654.900000        41.725200    304972.600000       -78.315630       747.400600      -179.883200       740.664200        59.046920       736.368400       -60.338680        59.968150         0.054474
1643124128.0000    304193.300000       150.716300    306841.400000        30.560170    305046.600000       -89.472820       746.782200       169.071900       741.198400        47.992180       736.528900       -71.442910        59.968940        -0.001831
1643124129.0000    304177.400000       139.122900    306803.700000        18.960670    304989.900000      -101.062300       747.551000       157.477100       742.083700        36.314650       736.646800       -83.077790        59.968210        -0.004120
1643124130.0000    304227.500000       127.864200    306853.900000         7.727318    305143.600000      -112.310800       746.896700       146.201000       740.704800        25.088140       736.116500       -94.282490        59.968390         0.019684
1643124131.0000    304035.500000       116.219100    306604.200000        -3.939209    304813.300000      -123.961100       747.418000       134.466900       741.887500        13.287950       735.996900      -106.091400        59.967060         0.024719
1643124132.0000    304035.700000       103.911300    306711.800000       -16.253240    304880.200000      -136.286500       746.906600       122.187900       741.761200         1.120039       736.927000      -118.318900        59.966190         0.014648
1643124133.0000    304060.300000        90.967740    306764.800000       -29.181140    304956.300000      -149.223700       747.658000       109.278800       741.611600       -11.807560       736.812300      -131.217500        59.962640        -0.052872
1643124134.0000    304058.000000        77.429920    306629.300000       -42.742740    304790.400000      -162.755800       747.532200        95.729680       742.273000       -25.457710       735.960600      -144.850200        59.961240        -0.021286
1643124135.0000    304184.800000        63.168580    306785.600000       -56.984880    305006.300000      -177.010700       747.523700        81.484370       741.459700       -39.648660       736.380600      -159.021800        59.959990        -0.006180
1643124136.0000    304140.800000        48.673410    306779.700000       -71.475890    305005.600000       168.486300       747.709800        66.995290       741.814900       -54.112960       737.073800      -173.515400        59.959590        -0.004120
1643124137.0000    304203.100000        34.611170    306834.800000       -85.537160    305083.600000       154.434800       747.554000        52.937390       741.590000       -68.192760       736.598900       172.417700        59.961720         0.009613
1643124138.0000    304288.200000        21.165690    306893.100000       -98.977910    305162.500000       140.991900       747.715900        39.507140       741.953900       -81.607800       736.721400       158.982900        59.963980        -0.016479
1643124139.0000    304043.200000         8.448394    306708.500000      -111.719000    304850.700000       128.249500       747.414500        26.706670       742.476900       -94.413420       736.988600       146.154200        59.965410         0.016251
1643124140.0000    304096.900000        -4.157178    306766.100000      -124.293400    305041.000000       115.658200       747.744000        14.098080       741.072900      -106.975400       736.829700       133.639500        59.966810         0.059967
1643124141.0000    304135.100000       -16.178240    306742.500000      -136.327000    304989.300000       103.640000       747.610100         2.113129       741.468600      -119.009700       736.719500       121.624100        59.967820         0.033646
1643124142.0000    304047.600000       -27.956410    306682.900000      -148.102800    304935.300000        91.865400       748.169900        -9.688219       741.387900      -130.805600       736.630900       109.842400        59.967620         0.038681
1643124143.0000    304131.700000       -39.089210    306806.100000      -159.226800    305076.100000        80.728400       747.459400       -20.850390       740.981300      -141.939100       736.581400        98.694360        59.969420         0.014648
1643124144.0000    304228.400000       -49.581790    306824.000000      -169.733700    305081.200000        70.242100       747.564100       -31.273730       741.482700      -152.384400       736.196500        88.239010        59.971460        -0.001144
1643124145.0000    304129.800000       -59.761310    306731.400000      -179.917000    304937.300000        60.060390       747.336200       -41.441650       742.413000      -162.606600       736.434300        77.973220        59.972040        -0.014648
1643124146.0000    304136.100000       -69.402600    306754.300000       170.457600    305033.300000        50.427140       747.909900       -51.149620       741.526900      -172.249800       737.097700        68.388110        59.974430         0.042343
1643124147.0000    304264.400000       -78.948100    306877.300000       160.902700    305097.400000        40.872810       746.901100       -60.569930       741.025700       178.340400       735.877300        58.948090        59.973110        -0.029526
1643124148.0000    304178.200000       -88.318320    306820.200000       151.525800    305036.800000        31.494620       746.750900       -69.962420       740.986900       168.954900       736.043200        49.534730        59.973700        -0.061569
1643124149.0000    304189.900000       -97.364930    306808.000000       142.476900    305007.400000        22.448530       746.778800       -78.988270       741.266800       159.906500       736.115300        40.478900        59.975320        -0.013962
1643124150.0000    304243.800000      -105.935800    306846.100000       133.907700    305049.500000        13.883700       747.950700       -87.623630       742.064100       151.281600       736.988800        31.860410        59.977700         0.013504
1643124151.0000    304043.200000      -113.481800    306656.600000       126.386200    304998.100000         6.348340       748.461300       -95.309390       741.593800       143.572800       737.106000        24.234340        59.980160         0.014877
1643124152.0000    304194.500000      -120.419700    306843.800000       119.438100    305106.500000        -0.597859       747.999100      -102.155900       741.701300       136.751300       736.910800        17.362940        59.981400        -0.002518
1643124153.0000    304230.400000      -126.827900    306918.300000       113.020000    305116.700000        -7.018864       747.290500      -108.414100       741.710700       130.473400       736.731300        11.041770        59.983660         0.030441
1643124154.0000    304186.500000      -132.650300    306829.800000       107.191200    305004.000000       -12.838000       747.268100      -114.267300       741.426900       124.646400       736.592800         5.209044        59.984710        -0.009842
1643124155.0000    304090.600000      -137.808200    306765.200000       102.036900    304936.400000       -18.000310       748.463100      -119.583000       743.038800       119.341300       738.266400        -0.109685        59.988290         0.012589
1643124156.0000    304040.900000      -141.886300    306702.800000        97.978970    304981.200000       -22.068340       748.548600      -123.727000       742.220600       115.203900       737.626100        -4.163189        59.988700         0.016479
1643124157.0000    304215.400000      -145.830700    306863.900000        94.016250    305064.900000       -26.017020       748.045900      -127.509400       742.264400       111.413100       737.244800        -8.025123        59.990870         0.034332
1643124158.0000    304216.300000      -149.260000    306842.700000        90.590400    305075.800000       -29.442450       747.589600      -130.916800       741.741000       107.989100       737.030300       -11.427390        59.992410         0.035934
1643124159.0000    304071.800000      -151.664100    306745.300000        88.194400    305013.600000       -31.847700       747.786400      -133.405500       741.934600       105.523500       737.396100       -13.895970        59.994170        -0.003204
1643124160.0000    304190.900000      -153.446400    306822.000000        86.400620    305023.500000       -33.628960       748.412900      -135.153600       742.451600       103.736200       737.361100       -15.635360        59.997410        -0.010300
1643124161.0000    304118.100000      -154.335200    306749.900000        85.514130    304999.300000       -34.521560       747.826500      -136.022900       742.185400       102.919600       737.725300       -16.511860        59.997430        -0.033875
1643124162.0000    304041.800000      -154.959000    306660.800000        84.890620    304883.300000       -35.139720       748.921100      -136.728900       742.865200       102.162300       738.027600       -17.241590        59.997410        -0.057907
1643124163.0000    304022.200000      -155.066300    306604.200000        84.785220    304862.100000       -35.239960       749.457900      -136.837400       743.107700       102.048800       738.242100       -17.320030        60.000740         0.012817
1643124164.0000    304057.300000      -155.033700    306716.800000        84.813450    304922.700000       -35.223980       748.725400      -136.748100       742.698900       102.151800       737.930200       -17.251820        60.001280         0.019913
1643124165.0000    304134.400000      -154.999800    306816.000000        84.851490    305031.600000       -35.189910       747.708300      -136.646400       741.778600       102.266900       737.108700       -17.129170        59.999050        -0.020142
1643124166.0000    304002.500000      -155.435000    306507.600000        84.406650    304744.300000       -35.604660       748.432900      -137.171300       743.037100       101.630100       737.005100       -17.748370        59.997470        -0.032730
1643124167.0000    303968.200000      -156.411700    306684.600000        83.419300    304779.400000       -36.619510       746.502900      -138.154700       741.701800       100.749700       736.840300       -18.709630        59.999260         0.081024
1643124168.0000    304004.000000      -157.518900    306746.300000        82.311000    304830.100000       -37.731580       746.929100      -139.237400       742.190700        99.689960       736.981700       -19.789640        59.994480        -0.016708
1643124169.0000    303911.100000      -159.547900    306575.700000        80.330160    304903.300000       -39.723590       748.523900      -141.391200       741.366300        97.538250       737.773500       -21.796770        59.993520        -0.001144
1643124170.0000    303972.200000      -162.031900    306561.000000        77.813580    304804.800000       -42.210250       748.194200      -143.778200       742.546000        95.060640       737.013100       -24.320360        59.992300         0.028839
1643124171.0000    304099.400000      -165.246000    306779.900000        74.593320    304924.600000       -45.440570       746.796600      -146.836100       741.361200        92.069460       736.500500       -27.369250        59.990800         0.026779
1643124172.0000    304019.400000      -169.211000    306585.600000        70.626590    304773.400000       -49.386570       748.012900      -150.943300       742.630700        87.875480       736.822500       -31.486460        59.987760         0.011673
1643124173.0000    304125.300000      -173.923500    306775.900000        65.924870    304983.700000       -54.114040       746.765800      -155.513000       740.985000        83.412790       736.261900       -35.987990        59.986210         0.007553
1643124174.0000    303983.600000      -179.866900    306691.300000        59.961070    304777.300000       -60.077600       746.165400      -161.584000       741.438900        77.378750       736.721700       -42.146620        59.982190        -0.028839
1643124175.0000    304087.900000       173.519100    306748.600000        53.373830    304953.200000       -66.669250       747.123800      -168.134300       741.327900        70.793380       736.493700       -48.638800        59.980310        -0.025635
1643124176.0000    304122.500000       166.056000    306772.900000        45.911560    305000.000000       -74.126850       746.463500      -175.518300       740.953000        63.401450       736.099600       -56.014310        59.977950        -0.014191
1643124177.0000    304049.600000       158.286100    306643.500000        38.116380    304791.100000       -81.902970       746.736600       176.589000       741.572000        55.440990       736.016900       -63.996620        59.977780        -0.053558
1643124178.0000    304024.100000       150.277900    306633.200000        30.126430    304875.800000       -89.904570       747.804700       168.563700       741.530900        47.476840       737.012900       -71.946590        59.977570         0.051498
1643124179.0000    304115.200000       141.501300    306797.300000        21.352230    304977.200000       -98.685210       746.755400       159.905800       740.951300        38.811230       736.226900       -80.600190        59.975360        -0.003891
