Terminal: LT 525  ITA - NOVA STA RITA C1
Tensão base: 525 kV
SOC inicial: 1643124120
SOC final: 1643124179
Taxa: 1 fasores/s
Total de frames faltantes: - 

Tempo_(SOC)           VA_mod_(V)     VA_ang_(graus)     VB_mod_(V)     VB_ang_(graus)     VC_mod_(V)     VC_ang_(graus)     IA_mod_(A)     IA_ang_(graus)     IB_mod_(A)     IB_ang_(graus)     IC_mod_(A)     IC_ang_(graus)     Frequência        Delta_Freq     Faltante
1643124120.0000    310377.800000      -125.905500    310763.300000       114.000000    309622.900000        -6.092335       713.223300      -105.614700       691.937900       136.194400       712.946800        16.502360        59.975510         0.004349
1643124121.0000    310327.900000      -135.029000    310683.300000       104.877700    309540.800000       -15.210880       713.696000      -114.802000       693.186100       126.882300       712.505600         7.203748        59.974190        -0.043488
1643124122.0000    310345.000000      -144.471300    310741.600000        95.434970    309567.100000       -24.659740       714.088300      -124.195800       693.658800       117.604200       714.277000        -2.166093        59.973250         0.059280
1643124123.0000    310357.300000      -154.383200    310751.300000        85.555370    309725.900000       -34.557630       713.760700      -134.089800       690.619400       107.709400       712.613200       -11.875580        59.971890         0.015335
1643124124.0000    310424.800000      -164.569300    310812.000000        75.352680    309724.500000       -44.745490       713.597700      -144.219800       691.760000        97.588200       712.925700       -22.100980        59.971630         0.030212
1643124125.0000    310420.100000      -175.282700    310791.100000        64.613770    309589.300000       -55.473640       713.170500      -154.928100       692.750400        86.842320       712.753700       -32.903160        59.971330         0.109634
1643124126.0000    310359.700000       173.471800    310775.300000        53.395070    309683.400000       -66.708180       713.620800      -166.245900       691.030900        75.564680       712.700100       -44.037250        59.967480        -0.026550
1643124127.0000    310259.000000       161.829900    310649.900000        41.757730    309595.300000       -78.344730       714.020400      -177.979100       692.379200        63.833520       713.650800       -55.826290        59.967320         0.023804
1643124128.0000    310423.300000       150.689000    310826.800000        30.597770    309650.100000       -89.499690       713.521200       171.036700       692.868200        52.823090       713.750100       -66.915280        59.969020         0.006180
1643124129.0000    310421.900000       139.096800    310772.900000        18.993760    309595.800000      -101.091700       714.564400       159.430100       693.771900        41.141310       713.487500       -78.587640        59.968300         0.003891
1643124130.0000    310456.500000       127.838300    310824.600000         7.761572    309769.600000      -112.340100       714.259300       148.131900       692.462600        29.894620       712.978900       -89.754480        59.968650         0.011444
1643124131.0000    310255.000000       116.194100    310588.300000        -3.907988    309448.200000      -123.989000       714.546600       136.398400       693.378600        18.067690       712.852200      -101.595200        59.966960         0.016022
1643124132.0000    310271.900000       103.881700    310724.800000       -16.219360    309478.800000      -136.315200       714.225800       124.104600       693.343900         5.923328       714.321800      -113.820000        59.966360         0.041656
1643124133.0000    310297.600000        90.941830    310743.300000       -29.148220    309562.100000      -149.250100       714.965100       111.230000       693.374900        -7.006356       714.275800      -126.688700        59.962220        -0.098190
1643124134.0000    310279.100000        77.403380    310632.900000       -42.710670    309396.000000      -162.784700       714.174100        97.699520       694.026600       -20.686530       712.618200      -140.380500        59.961320        -0.024033
1643124135.0000    310397.100000        63.141310    310769.900000       -56.951260    309643.800000      -177.038800       714.487700        83.446630       692.961600       -34.830700       713.246800      -154.492600        59.960110         0.004578
1643124136.0000    310356.600000        48.645860    310776.900000       -71.442080    309634.800000       168.459800       715.115100        68.926380       693.669000       -49.255670       714.354800      -168.987200        59.959240        -0.021973
1643124137.0000    310455.600000        34.584110    310796.000000       -85.503040    309698.600000       154.405900       714.689100        54.864230       693.356300       -63.387820       714.076800       176.924600        59.961700         0.005722
1643124138.0000    310527.300000        21.136500    310867.400000       -98.945860    309768.800000       140.962900       714.896800        41.454780       693.759500       -76.816060       714.033800       163.503200        59.964440         0.011673
1643124139.0000    310274.700000         8.418834    310695.700000      -111.685200    309475.600000       128.222400       714.382100        28.630870       693.887300       -89.602810       714.009500       150.640600        59.965310         0.026550
1643124140.0000    310328.000000        -4.181736    310764.200000      -124.261000    309661.000000       115.629000       714.972400        16.004350       692.803400      -102.159600       714.240200       138.144100        59.966440         0.027924
1643124141.0000    310373.000000       -16.207360    310725.300000      -136.294700    309616.800000       103.616400       714.839800         4.056160       692.997100      -114.191700       713.694800       126.154800        59.968060         0.049667
1643124142.0000    310296.800000       -27.985050    310656.700000      -148.068900    309553.200000        91.834190       715.078400        -7.754759       692.727100      -126.001900       713.535000       114.381900        59.967490         0.029984
1643124143.0000    310370.500000       -39.117310    310775.900000      -159.194300    309698.100000        80.699550       714.294600       -18.922500       691.966600      -137.130100       713.545600       103.215800        59.969360         0.011902
1643124144.0000    310466.000000       -49.610550    310804.000000      -169.699100    309698.000000        70.215230       714.404200       -29.313620       692.992200      -147.618100       713.148400        92.745560        59.972030         0.025864
1643124145.0000    310375.600000       -59.786500    310719.700000      -179.883200    309572.700000        60.034080       714.450700       -39.529930       694.096000      -157.833200       713.537000        82.432460        59.972370         0.001144
1643124146.0000    310374.700000       -69.430290    310720.300000       170.493500    309645.100000        50.399400       715.049900       -49.223250       693.101400      -167.460200       714.079400        72.878020        59.974830         0.065231
1643124147.0000    310492.700000       -78.976430    310851.900000       160.935900    309731.900000        40.844190       714.259500       -58.580930       692.808700      -176.839200       712.989200        63.484710        59.973310        -0.012817
1643124148.0000    310411.600000       -88.348320    310796.000000       151.560200    309645.400000        31.466190       713.962600       -68.014260       692.810500       173.774600       713.384600        54.065950        59.974090        -0.027695
1643124149.0000    310435.000000       -97.391570    310791.800000       142.510100    309642.800000        22.419590       713.816300       -77.001960       693.033800       164.744200       713.187700        45.017330        59.975770         0.005264
1643124150.0000    310467.600000      -105.961700    310819.900000       133.940300    309681.800000        13.853660       714.690100       -85.649570       693.882600       156.092700       714.050800        36.393390        59.977690         0.011673
1643124151.0000    310279.600000      -113.506400    310660.700000       126.418700    309599.100000         6.318449       715.269800       -93.419150       692.684100       148.354600       714.143700        28.732940        59.980080         0.008926
1643124152.0000    310424.900000      -120.445100    310819.500000       119.471800    309724.500000        -0.627375       715.007700      -100.240100       693.304000       141.550200       714.259200        21.885470        59.981380        -0.009613
1643124153.0000    310479.200000      -126.856000    310893.100000       113.053700    309730.300000        -7.048308       714.219000      -106.469500       693.460600       135.306000       713.556300        15.568360        59.983060         0.017395
1643124154.0000    310421.500000      -132.676700    310799.100000       107.225100    309629.100000       -12.865870       714.187000      -112.297900       693.114700       129.504000       713.681800         9.775558        59.985200         0.012817
1643124155.0000    310315.800000      -137.835900    310742.500000       102.068100    309563.200000       -18.028960       715.296600      -117.649300       694.591000       124.136800       715.590200         4.394183        59.988380         0.027695
1643124156.0000    310252.800000      -141.914900    310675.900000        98.009280    309602.100000       -22.095560       715.552100      -121.812400       693.364400       119.967300       714.523400         0.330995        59.988180        -0.011673
1643124157.0000    310447.700000      -145.857700    310854.400000        94.049120    309693.200000       -26.044500       714.756300      -125.518600       693.907200       116.244800       714.367500        -3.477425        59.991000         0.046921
1643124158.0000    310446.300000      -149.288200    310837.000000        90.620350    309701.500000       -29.472510       714.778300      -128.925700       693.423000       112.842600       714.103800        -6.859580        59.991850         0.004807
1643124159.0000    310322.200000      -151.692400    310726.100000        88.228640    309613.500000       -31.874260       714.994800      -131.447200       693.468400       110.349300       714.639200        -9.347161        59.994080         0.002289
1643124160.0000    310413.400000      -153.474700    310790.500000        86.431270    309662.800000       -33.656910       715.196200      -133.190400       693.918800       108.560600       714.499800       -11.110850        59.997110        -0.011673
1643124161.0000    310335.500000      -154.361300    310755.300000        85.547900    309604.200000       -34.550500       714.785200      -134.054900       693.773800       107.730100       714.556100       -11.988050        59.997980        -0.021973
1643124162.0000    310248.200000      -154.983100    310657.900000        84.926350    309513.900000       -35.169100       716.012400      -134.774100       694.361500       106.944100       714.867200       -12.715950        59.998100        -0.036621
1643124163.0000    310249.900000      -155.093000    310588.400000        84.819180    309489.600000       -35.270340       716.562100      -134.907000       694.604200       106.839700       715.468100       -12.808810        60.001050         0.021744
1643124164.0000    310302.600000      -155.061400    310709.100000        84.844890    309537.900000       -35.250430       715.638500      -134.793100       694.018700       106.959100       714.906100       -12.724890        60.000850        -0.000458
1643124165.0000    310351.200000      -155.025600    310806.200000        84.885440    309645.400000       -35.220270       714.556300      -134.658700       693.463000       107.116600       714.060900       -12.595250        59.999700         0.004578
1643124166.0000    310222.800000      -155.462700    310499.200000        84.440080    309384.000000       -35.634940       714.844100      -135.233400       694.402900       106.373500       713.324300       -13.297320        59.997360        -0.034790
1643124167.0000    310184.100000      -156.441000    310667.700000        83.451970    309411.900000       -36.648980       713.124600      -136.276100       693.199200       105.564100       713.532300       -14.251420        59.999230         0.080795
1643124168.0000    310231.800000      -157.546200    310741.100000        82.345600    309455.100000       -37.756220       713.831200      -137.306900       694.033000       104.501000       714.088000       -15.284180        59.994440        -0.020599
1643124169.0000    310133.300000      -159.576100    310559.100000        80.362310    309540.200000       -39.750920       715.561500      -139.499800       692.414600       102.338800       714.519800       -17.262190        59.993940         0.021057
1643124170.0000    310187.700000      -162.058800    310549.400000        77.847790    309415.100000       -42.238010       715.082100      -141.860700       694.038400        99.849660       713.807500       -19.833450        59.992070         0.025864
1643124171.0000    310323.800000      -165.272000    310762.700000        74.625240    309560.900000       -45.469550       713.660300      -144.869500       692.956200        96.929540       713.306800       -22.834340        59.990300        -0.007553
1643124172.0000    310240.100000      -169.238000    310571.300000        70.658130    309410.800000       -49.416520       714.872100      -149.001100       693.847200        92.694710       713.392100       -27.008190        59.987510        -0.000916
1643124173.0000    310350.800000      -173.950800    310765.400000        65.957410    309602.500000       -54.141740       713.355700      -153.521300       692.534800        88.271070       713.331400       -31.439250        59.986420         0.017395
1643124174.0000    310209.600000      -179.894900    310687.300000        59.996280    309416.600000       -60.103130       712.297300      -159.609900       692.939300        82.233120       713.598800       -37.630460        59.982230        -0.028839
1643124175.0000    310294.300000       173.493500    310739.000000        53.406330    309587.800000       -66.696010       713.609700      -166.155100       692.390900        75.668060       713.481000       -44.079210        59.980530        -0.013275
1643124176.0000    310346.800000       166.027700    310763.200000        45.943630    309630.000000       -74.156180       713.015300      -173.523400       691.988600        68.288620       712.953300       -51.454140        59.977970        -0.011673
1643124177.0000    310269.000000       158.259700    310624.200000        38.151470    309405.900000       -81.928950       713.119300       178.562600       692.996000        60.252350       712.493700       -59.494110        59.978020        -0.042572
1643124178.0000    310235.100000       150.252000    310611.200000        30.159100    309492.500000       -89.930440       714.669600       170.499500       693.332600        52.301730       713.724400       -67.389710        59.977320         0.043945
1643124179.0000    310329.800000       141.476400    310759.200000        21.385480    309611.600000       -98.713950       713.415200       161.914900       692.174200        43.704570       713.044900       -76.028310        59.975810         0.013275
