Terminal: LT 525  AREIA - BENTO MUNHOZ C1
Tensão base: 525 kV
SOC inicial: 1643124120
SOC final: 1643124179
Taxa: 1 fasores/s
Total de frames faltantes: - 

Tempo_(SOC)           VA_mod_(V)     VA_ang_(graus)     VB_mod_(V)     VB_ang_(graus)     VC_mod_(V)     VC_ang_(graus)     IA_mod_(A)     IA_ang_(graus)     IB_mod_(A)     IB_ang_(graus)     IC_mod_(A)     IC_ang_(graus)     Frequência        Delta_Freq     Faltante
1643124120.0000    313012.200000      -113.244200    314186.400000       126.775100    313932.200000         6.605107       654.262000        70.577190       640.525100       -45.862210       621.962000      -169.358900        59.975120        -0.002060
1643124121.0000    312960.000000      -122.350500    314225.900000       117.692000    314040.600000        -2.503811       654.970600        61.501400       640.380600       -54.878000       622.925500      -178.318800        59.974250        -0.035934
1643124122.0000    312919.700000      -131.789400    314140.000000       108.248200    313948.100000       -11.937670       655.810100        52.144330       641.439600       -64.279460       623.194000       172.301000        59.972940         0.012817
1643124123.0000    312964.800000      -141.726300    314249.700000        98.322110    314062.600000       -21.877710       655.745300        42.281100       641.158500       -74.102190       623.678300       162.484700        59.972530         0.013046
1643124124.0000    313031.300000      -151.914200    314236.500000        88.129300    314080.000000       -32.055540       655.496300        32.106090       641.204100       -84.288820       623.104000       152.291500        59.971420         0.029068
1643124125.0000    312939.700000      -162.625000    314152.800000        77.390340    313868.000000       -42.780300       656.044300        21.254350       642.915700       -95.164630       624.113800       141.351200        59.970330         0.035477
1643124126.0000    312937.700000      -173.865800    314208.300000        66.160050    313924.800000       -54.028000       655.340100         9.991899       641.708700      -106.399000       623.488200       130.110100        59.968140         0.002975
1643124127.0000    312933.100000       174.508100    314128.100000        54.560690    314017.400000       -65.627410       654.985800        -1.675836       640.059900      -118.094500       621.923500       118.509500        59.967450         0.002060
1643124128.0000    312980.700000       163.348900    314177.800000        43.379910    313981.000000       -76.797970       656.273400       -12.701830       642.541400      -129.163000       623.816900       107.402700        59.967950         0.008011
1643124129.0000    312973.900000       151.798500    314197.300000        31.817920    313905.800000       -88.359120       655.567600       -24.331110       642.142500      -140.765400       623.511400        95.739720        59.967660         0.009613
1643124130.0000    313104.600000       140.504300    314333.700000        20.551160    314181.200000       -99.640770       655.819800       -35.444020       641.237700      -151.855400       623.565600        84.758710        59.969780         0.070038
1643124131.0000    312816.400000       128.886200    314056.800000         8.906739    313766.000000      -111.272800       656.436200       -47.327940       642.752900      -163.749700       624.505000        72.788740        59.967190         0.017624
1643124132.0000    312860.400000       116.584200    314078.500000        -3.407210    313723.100000      -123.581800       655.750100       -59.627070       642.882000      -176.035800       623.926800        60.462510        59.965660        -0.016479
1643124133.0000    312832.800000       103.641800    314165.400000       -16.336060    313843.500000      -136.533300       655.019000       -72.582620       641.231900       171.067500       623.453600        47.578950        59.962310        -0.099335
1643124134.0000    312853.000000        90.098980    314064.600000       -29.889120    313750.800000      -150.058900       654.971800       -86.135660       641.759500       157.444500       623.226700        33.951660        59.961650         0.002747
1643124135.0000    313014.300000        75.830900    314211.500000       -44.146320    313961.800000      -164.322400       655.609100      -100.262500       641.976500       143.336300       623.732400        19.849010        59.959850        -0.008469
1643124136.0000    312989.600000        61.351520    314210.400000       -58.613630    313984.100000      -178.804600       655.487900      -114.787500       641.227100       128.816200       623.311500         5.376688        59.959510        -0.030899
1643124137.0000    312956.900000        47.275240    314143.300000       -72.686460    313942.600000       167.135000       656.117000      -128.931100       641.961900       114.649200       623.752000        -8.757775        59.962800         0.058136
1643124138.0000    313120.200000        33.833860    314318.600000       -86.118810    314166.700000       153.690500       655.241300      -142.249100       640.389100       101.326500       622.420400       -22.070380        59.963670        -0.029526
1643124139.0000    312883.800000        21.111390    314112.000000       -98.875130    313811.500000       140.947300       656.336500      -155.090300       642.950100        88.513340       624.603500       -34.990270        59.965370         0.039825
1643124140.0000    312976.900000         8.507303    314256.500000      -111.452700    314035.800000       128.354400       656.408600      -167.674700       641.744300        75.937970       624.228500       -47.502390        59.965760         0.024948
1643124141.0000    312887.300000        -3.525819    314064.400000      -123.496300    313837.400000       116.328200       656.411300      -179.813800       642.312500        63.761880       623.939900       -59.694300        59.967490         0.029068
1643124142.0000    312875.500000       -15.282170    314119.400000      -135.260800    313811.700000       104.559500       655.461500       168.433000       642.289400        52.052070       623.627600       -71.466240        59.967500         0.012131
1643124143.0000    312959.900000       -26.437740    314241.700000      -146.398200    314015.100000        93.406850       656.194600       157.513400       641.807200        41.121150       623.976400       -82.332410        59.968930        -0.006638
1643124144.0000    313032.300000       -36.923850    314236.400000      -156.889600    314036.600000        82.927000       656.428400       147.070500       642.212300        30.655740       623.920500       -92.797050        59.971130         0.002289
1643124145.0000    312908.700000       -47.091890    314121.300000      -167.047700    313968.700000        72.764980       656.127600       136.705200       641.521400        20.277550       623.482200      -103.140200        59.972270        -0.001831
1643124146.0000    312893.700000       -56.736560    314074.400000      -176.693300    313916.100000        63.124660       657.473300       127.015200       642.805100        10.551550       624.444200      -112.848700        59.975250         0.090179
1643124147.0000    312977.200000       -66.288650    314187.600000       173.742000    313953.500000        53.560770       657.008800       117.621000       643.031800         1.207105       624.549800      -122.252000        59.973330        -0.021744
1643124148.0000    312911.800000       -75.665270    314098.400000       164.361500    313866.600000        44.188880       658.168500       108.182200       644.370400        -8.299704       625.501400      -131.711900        59.973870        -0.065231
1643124149.0000    312925.400000       -84.702100    314128.300000       155.320000    313875.300000        35.145210       659.340300        99.095660       645.598500       -17.354460       626.709700      -140.795600        59.976130         0.013046
1643124150.0000    313005.600000       -93.246730    314160.800000       146.774700    313933.300000        26.608930       658.667800        90.608380       644.835300       -25.868440       625.976100      -149.301300        59.977200         0.035934
1643124151.0000    312936.700000      -100.770900    314164.600000       139.267100    313978.500000        19.079580       659.899700        83.119090       645.094900       -33.308300       627.339300      -156.753100        59.980140         0.013275
1643124152.0000    313056.200000      -107.726000    314306.100000       132.311400    314072.300000        12.123350       660.201300        76.241070       645.643800       -40.164650       627.427600      -163.618100        59.981170        -0.031128
1643124153.0000    312968.400000      -114.132900    314271.900000       125.894800    313985.900000         5.700954       661.486500        69.623680       647.410900       -46.733330       629.499800      -170.215100        59.983240         0.028152
1643124154.0000    312903.800000      -119.956700    314113.500000       120.057800    313815.300000        -0.112963       662.034100        63.892660       648.858000       -52.527230       629.703700      -176.037800        59.985500         0.021515
1643124155.0000    312988.700000      -125.063400    314212.700000       114.965400    313945.800000        -5.215678       662.957700        58.743960       649.066900       -57.686450       630.199000       178.849500        59.987550         0.015106
1643124156.0000    312915.600000      -129.165700    314211.000000       110.873400    313975.200000        -9.325213       664.671600        54.820260       650.563500       -61.589970       632.354800       174.964500        59.988560        -0.008469
1643124157.0000    312995.900000      -133.111200    314244.700000       106.922500    314015.700000       -13.264930       665.176700        50.818120       650.973300       -65.595270       632.656900       170.954200        59.990320         0.045319
1643124158.0000    312934.600000      -136.540400    314195.800000       103.493000    313968.400000       -16.693900       665.385400        47.419040       650.882800       -69.009190       632.613800       167.549200        59.992180         0.005951
1643124159.0000    312765.900000      -138.933700    314057.800000       101.111700    313880.400000       -19.080890       666.678000        44.841220       651.972700       -71.572430       633.960600       165.042100        59.993410        -0.021286
1643124160.0000    312951.300000      -140.711900    314202.700000        99.314090    313956.900000       -20.869500       666.740100        43.094620       652.905500       -73.318520       633.806600       163.194000        59.996440        -0.019684
1643124161.0000    312861.100000      -141.618300    314123.900000        98.414920    313888.800000       -21.773790       668.015600        42.189770       653.615800       -74.236400       635.076500       162.326400        59.997780        -0.023575
1643124162.0000    312778.600000      -142.190300    314053.300000        97.831590    313748.700000       -22.353940       668.217800        41.491470       654.392100       -74.896100       635.643700       161.628300        59.997710        -0.096588
1643124163.0000    312717.900000      -142.295200    313888.300000        97.730000    313653.300000       -22.439470       669.224300        41.380500       655.426300       -75.106860       636.104600       161.485200        60.000010         0.022659
1643124164.0000    312753.100000      -142.266000    314061.000000        97.747430    313705.700000       -22.438120       668.873900        41.435290       655.238600       -74.943100       636.530100       161.538500        60.001000        -0.005951
1643124165.0000    312774.800000      -142.270000    314121.900000        97.760720    313822.200000       -22.437850       669.261200        41.444150       654.445600       -74.923000       636.500200       161.612500        59.999360        -0.015335
1643124166.0000    312709.100000      -142.701300    313893.700000        97.344270    313759.900000       -22.839230       670.272000        41.008830       655.309100       -75.470980       636.544400       161.153800        59.997630        -0.020142
1643124167.0000    312725.500000      -143.686000    314061.500000        96.334820    313709.900000       -23.859290       668.695500        39.910410       655.003400       -76.463710       636.599600       160.030600        59.998430         0.059738
1643124168.0000    312726.200000      -144.797800    314110.100000        95.217930    313729.200000       -24.981060       669.755100        38.946110       656.336700       -77.383370       638.214400       159.080000        59.995070        -0.042114
1643124169.0000    312665.700000      -146.793800    313969.600000        93.253130    313790.700000       -26.952530       669.839100        36.824750       654.959500       -79.567910       636.882400       157.007800        59.993520         0.005035
1643124170.0000    312798.700000      -149.297800    314001.500000        90.737080    313791.300000       -29.442730       670.290000        34.500590       655.770800       -81.966120       637.060300       154.632700        59.992070         0.039825
1643124171.0000    312801.300000      -152.538400    314064.400000        87.485280    313766.800000       -32.700040       669.036900        31.124240       655.119700       -85.278750       636.700400       151.256600        59.989720        -0.010529
1643124172.0000    312778.100000      -156.480900    313987.300000        83.545680    313746.600000       -36.628240       669.260900        27.144580       654.902000       -89.347340       635.886000       147.270800        59.988930         0.050125
1643124173.0000    312793.300000      -161.232000    314038.900000        78.796810    313787.300000       -41.387750       669.389600        22.448770       654.968100       -93.948120       636.589100       142.578100        59.986070         0.009155
1643124174.0000    312757.900000      -167.168700    313968.700000        72.851330    313699.600000       -47.325020       668.585100        16.340180       654.695100      -100.089800       635.684100       136.442200        59.982190        -0.008926
1643124175.0000    312753.700000      -173.774500    314034.300000        66.262250    313819.900000       -53.931210       668.696800         9.857691       654.078500      -106.533000       635.747700       130.030500        59.980110        -0.023346
1643124176.0000    312735.700000       178.740200    313978.900000        58.784820    313784.000000       -61.409840       668.594500         2.376492       653.584000      -114.039900       635.365700       122.560900        59.977630        -0.028381
1643124177.0000    312838.600000       170.988300    314032.400000        51.016420    313809.900000       -69.161780       668.131700        -5.304811       654.279100      -121.782600       634.931900       114.767000        59.978860         0.011444
1643124178.0000    312724.100000       162.983800    313939.600000        43.005840    313678.500000       -77.169760       668.584400       -13.443520       654.343600      -129.875000       635.288400       106.674400        59.977510         0.043030
1643124179.0000    312745.600000       154.192900    314039.600000        34.219590    313756.400000       -85.969060       667.871400       -22.193370       653.489400      -138.603400       635.283000        97.949320        59.975800         0.029984
