Terminal: LT 500  P. JUSCELINO - JANAUBA 3 C1
Tensão base: 500 kV
SOC inicial: 1643124120
SOC final: 1643124179
Taxa: 1 fasores/s
Total de frames faltantes: - 

Tempo_(SOC)           VA_mod_(V)     VA_ang_(graus)     VB_mod_(V)     VB_ang_(graus)     VC_mod_(V)     VC_ang_(graus)     IA_mod_(A)     IA_ang_(graus)     IB_mod_(A)     IB_ang_(graus)     IC_mod_(A)     IC_ang_(graus)     Frequência        Delta_Freq     Faltante
1643124120.0000    311819.000000       -42.442960    311486.400000      -161.935100    310371.100000        78.438860       161.151800        96.759580       173.402300       -20.561110       171.043500      -139.838200        59.974560        -0.015564
1643124121.0000    311803.000000       -51.483800    311480.800000      -170.970000    310401.900000        69.400940       161.826200        87.911500       173.254500       -29.296450       171.263100      -148.847700        59.972930        -0.048294
1643124122.0000    311743.500000       -60.938860    311461.700000       179.570500    310322.600000        59.936280       162.324500        78.517890       173.738600       -38.786550       171.986300      -158.141000        59.973780         0.057449
1643124123.0000    311710.300000       -70.928340    311402.900000       169.583200    310276.600000        49.950610       161.705500        68.646610       173.907500       -48.708960       171.657800      -168.208900        59.972520         0.023575
1643124124.0000    311794.400000       -81.250970    311471.000000       159.258500    310369.800000        39.629940       161.207600        58.238410       173.278300       -59.102770       171.437700      -178.443300        59.971050        -0.010300
1643124125.0000    311656.800000       -91.883470    311392.100000       148.633400    310287.100000        28.993540       161.761200        47.494710       173.408600       -69.900790       171.457200       170.778600        59.969760         0.013046
1643124126.0000    311716.800000      -103.034800    311403.400000       137.475500    310268.900000        17.843900       161.917400        36.230660       173.606400       -80.917600       171.974400       159.628800        59.968100        -0.013504
1643124127.0000    311705.300000      -114.610300    311429.300000       125.902700    310292.400000         6.267417       161.669000        24.739060       173.224200       -92.401130       171.935000       148.022000        59.967120        -0.014191
1643124128.0000    311852.500000      -125.986900    311549.500000       114.522100    310414.500000        -5.109789       161.256400        13.073560       172.520800      -104.000400       171.568000       136.347700        59.970500         0.069580
1643124129.0000    311656.400000      -137.184700    311351.000000       103.322400    310204.000000       -16.306970       162.095900         2.009809       173.809100      -115.145300       171.694200       125.479700        59.968240        -0.016479
1643124130.0000    311674.800000      -148.669700    311381.800000        91.834680    310226.900000       -27.794030       161.591900        -9.461917       173.625400      -126.724400       171.784800       113.945500        59.967770         0.021057
1643124131.0000    311596.400000      -160.157200    311299.600000        80.345230    310145.200000       -39.283870       161.866500       -20.827360       173.720700      -138.070000       171.794100       102.350400        59.965710        -0.090866
1643124132.0000    311529.300000      -172.259400    311200.400000        68.250380    310089.900000       -51.379090       162.766700       -33.049090       174.617700      -150.079700       172.374900        90.452040        59.966090        -0.002289
1643124133.0000    311607.300000       174.638000    311252.600000        55.134390    310088.800000       -64.484920       161.937300       -46.126960       174.046600      -163.239500       171.935300        77.281650        59.962910         0.018997
1643124134.0000    311665.600000       161.010300    311323.400000        41.507900    310158.400000       -78.112360       161.496700       -59.831800       173.574600      -176.868000       172.070700        63.623180        59.962000         0.005264
1643124135.0000    311573.600000       146.841800    311233.400000        27.338090    310071.800000       -92.281040       161.582300       -73.863690       174.532500       168.800900       172.507200        49.413350        59.959420        -0.006409
1643124136.0000    311679.400000       132.259100    311367.800000        12.761430    310213.200000      -106.869200       161.598200       -88.444060       173.496300       154.265800       172.297000        34.828410        59.959190        -0.007553
1643124137.0000    311621.500000       118.355500    311293.900000        -1.136653    310165.800000      -120.764600       162.426600      -102.106500       175.083400       140.487600       173.033400        21.015540        59.962410         0.043716
1643124138.0000    311519.700000       105.087900    311214.600000       -14.403880    310072.200000      -134.033100       163.118100      -115.477500       175.069300       127.411300       172.894600         7.765310        59.963500         0.019226
1643124139.0000    311622.600000        92.213680    311302.300000       -27.273430    310191.800000      -146.909000       162.719600      -128.222900       174.234300       114.336300       172.498400        -5.014433        59.965310         0.055161
1643124140.0000    311513.000000        79.773380    311195.900000       -39.713860    310081.600000      -159.346100       163.175100      -140.705500       174.845200       101.973600       173.002600       -17.458470        59.964610        -0.022888
1643124141.0000    311527.000000        67.672080    311189.500000       -51.819540    310075.800000      -171.443900       163.129600      -152.872600       174.721200        89.782360       172.621000       -29.769320        59.966010         0.029526
1643124142.0000    311489.500000        56.012940    311158.900000       -63.471100    310081.900000       176.894300       162.949000      -164.457900       174.854900        78.277310       173.246300       -41.185470        59.967760        -0.032501
1643124143.0000    311558.400000        44.809150    311229.600000       -74.680720    310114.300000       165.691000       162.974200      -175.617400       175.289700        66.962920       173.167900       -52.492600        59.971210         0.061340
1643124144.0000    311562.000000        34.252430    311227.600000       -85.228860    310160.600000       155.140500       162.887800       173.741500       174.454100        56.503720       172.786100       -63.045830        59.971710         0.002060
1643124145.0000    311441.500000        24.286310    311095.900000       -95.200280    310002.500000       145.173100       163.029300       163.735300       175.152000        46.574120       173.072700       -72.913630        59.969670        -0.137787
1643124146.0000    311488.300000        14.614010    311161.300000      -104.875700    310065.600000       135.494600       163.089500       154.187100       175.023300        37.025530       173.283200       -82.401120        59.972200        -0.040512
1643124147.0000    311444.200000         5.136155    311203.600000      -114.368300    309994.700000       125.998400       163.306200       144.828200       175.376100        27.301000       173.675900       -92.070250        59.974950         0.086288
1643124148.0000    311498.000000        -4.376318    311282.100000      -123.883300    310032.900000       116.483800       162.921200       135.099900       174.802200        18.022370       173.409300      -101.466700        59.975700         0.093613
1643124149.0000    311558.600000       -13.452750    311324.400000      -132.956500    310110.500000       107.410100       162.351500       126.157500       174.506700         8.914522       172.863300      -110.688200        59.976180         0.046921
1643124150.0000    311660.500000       -22.023810    311414.000000      -141.525500    310189.300000        98.842370       162.309900       117.634100       174.287400         0.197913       172.230200      -119.125700        59.976860         0.004807
1643124151.0000    311694.300000       -29.629330    311453.400000      -149.136300    310210.500000        91.230690       162.113500       109.715600       173.902800        -7.436117       172.189000      -126.920500        59.980180         0.026779
1643124152.0000    311599.500000       -36.470920    311303.100000      -155.985000    310074.200000        84.392900       162.251200       102.835400       173.943600       -14.371740       172.695400      -133.796700        59.981760         0.016479
1643124153.0000    311702.600000       -42.952690    311422.400000      -162.460300    310184.400000        77.920810       162.189800        96.447400       173.754400       -20.890540       172.329600      -140.366100        59.982130        -0.001373
1643124154.0000    311843.500000       -49.009750    311562.700000      -168.519700    310319.500000        71.856380       161.784500        90.313080       173.869100       -26.656060       172.249400      -146.250300        59.985420         0.054703
1643124155.0000    311855.100000       -54.027290    311561.000000      -173.538800    310340.000000        66.838100       162.027800        85.496600       174.252700       -31.814310       172.662400      -151.351200        59.988030         0.074615
1643124156.0000    311787.500000       -58.333510    311525.600000      -177.842000    310293.200000        62.529900       162.134000        81.200970       174.382600       -36.109550       172.498000      -155.636900        59.988980        -0.030899
1643124157.0000    311729.200000       -62.075070    311441.300000       178.419900    310232.200000        58.795100       162.611300        77.483180       174.683000       -39.791240       172.839800      -159.211500        59.989050        -0.049438
1643124158.0000    311880.100000       -65.592160    311574.300000       174.901100    310395.600000        55.278830       162.709200        73.866870       173.997400       -43.478560       172.220500      -162.733600        59.992120         0.009155
1643124159.0000    311892.900000       -68.092120    311636.900000       172.404200    310433.000000        52.777590       161.899500        71.222470       173.718200       -46.039130       171.803700      -165.483900        59.993080        -0.026779
1643124160.0000    311879.900000       -69.705090    311542.100000       170.782300    310313.200000        51.168090       162.748100        69.633150       174.292900       -47.540680       172.324800      -166.912500        59.996520        -0.021286
1643124161.0000    311965.300000       -70.782140    311646.300000       169.709100    310463.900000        50.094980       161.793900        68.794470       173.945200       -48.479000       171.844400      -168.173400        59.998170         0.037079
1643124162.0000    311969.800000       -71.205750    311623.300000       169.278200    310401.800000        49.669440       162.656900        68.490820       174.678400       -48.711100       172.580400      -168.431200        59.998250        -0.058594
1643124163.0000    311906.200000       -71.190690    311596.500000       169.294800    310357.800000        49.681660       162.084800        68.292080       174.965200       -48.881870       172.809900      -168.393700        59.999660        -0.067291
1643124164.0000    311919.900000       -71.215540    311611.500000       169.272800    310378.600000        49.656010       162.050700        68.252180       174.621300       -48.982030       173.144600      -168.464900        60.000160         0.021057
1643124165.0000    311972.000000       -71.407170    311703.500000       169.081700    310447.600000        49.457130       161.919700        67.837870       173.913200       -49.350140       171.885900      -168.869100        60.002860         0.247650
1643124166.0000    311776.000000       -71.576330    311514.900000       168.926600    310330.000000        49.293410       162.763000        67.922870       174.077000       -49.403380       172.551700      -168.986300        60.003650         0.176468
1643124167.0000    311833.100000       -72.476550    311470.000000       168.029800    310349.700000        48.411130       162.881600        67.017110       174.584200       -50.213440       173.100300      -169.672700        59.996230        -0.033875
1643124168.0000    311941.000000       -74.065250    311599.200000       166.446500    310512.400000        46.821350       161.715100        65.436580       173.854300       -52.016000       172.112900      -171.422800        59.996350         0.049896
1643124169.0000    311856.100000       -75.864100    311481.500000       164.646600    310404.500000        45.024640       162.461800        63.597080       174.225800       -53.733360       172.285600      -173.146100        59.994300         0.004120
1643124170.0000    311920.200000       -78.497360    311509.000000       162.016800    310449.600000        42.401870       161.557500        60.930800       173.860100       -56.565850       171.696500      -175.796500        59.990380        -0.082855
1643124171.0000    311876.100000       -81.593930    311507.600000       158.921500    310429.600000        39.296990       162.681800        57.686450       174.236100       -59.451380       172.379600      -178.911500        59.992270         0.065460
1643124172.0000    311833.800000       -85.467950    311433.800000       155.047200    310367.000000        35.427380       162.543800        54.063610       174.925900       -63.257390       172.935400       177.288900        59.987760        -0.001831
1643124173.0000    311873.600000       -90.276600    311495.600000       150.241900    310444.800000        30.617940       162.821400        48.948970       173.829300       -68.232810       171.938800       172.294400        59.986650         0.061798
1643124174.0000    311684.200000       -95.912670    311333.200000       144.603500    310269.700000        24.974220       162.546100        43.493600       174.662800       -73.757290       172.363400       166.804700        59.981870        -0.092011
1643124175.0000    311820.500000      -102.656700    311447.100000       137.854500    310355.100000        18.232770       162.270000        36.465940       174.312000       -80.799550       172.327200       160.038300        59.981300         0.093155
1643124176.0000    311844.500000      -110.161500    311471.600000       130.352900    310388.300000        10.731420       162.426100        29.382310       174.162800       -88.132420       171.978100       152.445500        59.979250         0.017624
1643124177.0000    311899.000000      -118.151000    311574.400000       122.367700    310498.400000         2.735782       162.079500        21.261550       173.952100       -96.211030       171.537100       144.322900        59.979040         0.066147
1643124178.0000    311882.900000      -126.023900    311520.200000       114.488000    310450.800000        -5.134853       161.619100        13.263400       173.962800      -104.132900       171.624900       136.644800        59.978570         0.069122
1643124179.0000    311773.300000      -134.632800    311430.300000       105.884600    310341.400000       -13.744330       162.077300         4.830857       174.245300      -112.519200       172.165500       127.912600        59.974340         0.001831
