Terminal: LT 525  ITA - NOVA STA RITA C2
Tensão base: 525 kV
SOC inicial: 1643124120
SOC final: 1643124179
Taxa: 1 fasores/s
Total de frames faltantes: - 

Tempo_(SOC)           VA_mod_(V)     VA_ang_(graus)     VB_mod_(V)     VB_ang_(graus)     VC_mod_(V)     VC_ang_(graus)     IA_mod_(A)     IA_ang_(graus)     IB_mod_(A)     IB_ang_(graus)     IC_mod_(A)     IC_ang_(graus)     Frequência        Delta_Freq     Faltante
1643124120.0000    309017.100000      -125.838100    309486.500000       113.994200    307936.100000        -6.050629       687.440900      -105.220300       682.571300       135.426500       687.412000        14.808510        59.975800         0.018082
1643124121.0000    308950.500000      -134.963700    309399.500000       104.870200    307865.700000       -15.168430       687.408800      -114.385600       683.266900       126.160700       687.133900         5.526063        59.973540        -0.058823
1643124122.0000    308972.300000      -144.403300    309453.900000        95.427830    307894.800000       -24.618130       688.643100      -123.810400       684.450400       116.827000       688.780400        -3.861585        59.973460         0.072784
1643124123.0000    308960.500000      -154.314400    309462.900000        85.548900    308056.900000       -34.516280       687.824400      -133.725400       681.164400       106.947900       687.060500       -13.584410        59.972160         0.025635
1643124124.0000    309053.800000      -164.500600    309510.100000        75.348850    308019.300000       -44.704410       688.035600      -143.865800       682.267600        96.818640       687.721400       -23.779840        59.971970         0.032730
1643124125.0000    309050.900000      -175.214500    309517.800000        64.609650    307897.300000       -55.433250       687.757600      -154.551000       683.435400        86.112750       687.400100       -34.569340        59.971430         0.113297
1643124126.0000    308981.400000       173.541700    309488.300000        53.391060    308026.200000       -66.666820       688.115100      -165.843600       681.532100        74.796430       687.083100       -45.700240        59.967580        -0.032730
1643124127.0000    308902.800000       161.898000    309355.800000        41.750520    307910.700000       -78.303810       688.171900      -177.575800       682.349900        63.068050       687.956800       -57.481910        59.967420         0.029297
1643124128.0000    309045.800000       150.756900    309528.600000        30.591510    307976.100000       -89.459660       687.450200       171.399100       683.287000        52.088900       688.050200       -68.620790        59.969280         0.012131
1643124129.0000    309051.800000       139.163800    309495.100000        18.987900    307925.700000      -101.048700       688.957600       159.808900       684.448300        40.390320       687.717200       -80.256230        59.968520         0.008698
1643124130.0000    309077.500000       127.905500    309546.400000         7.754991    308097.900000      -112.297600       688.061800       148.518700       682.992400        29.115160       687.989600       -91.434010        59.969180         0.045319
1643124131.0000    308879.400000       116.257600    309299.100000        -3.914777    307744.800000      -123.948100       688.586500       136.781200       684.042200        17.328510       687.554700      -103.271300        59.966700         0.020142
1643124132.0000    308918.000000       103.953000    309424.600000       -16.225960    307801.500000      -136.275000       688.304400       124.475000       684.008900         5.174912       688.875900      -115.515700        59.966030         0.024261
1643124133.0000    308927.300000        91.009960    309434.600000       -29.154810    307910.300000      -149.212500       689.081400       111.606400       684.042800        -7.749707       688.917000      -128.346000        59.962220        -0.090179
1643124134.0000    308928.000000        77.471020    309334.800000       -42.714530    307715.100000      -162.742700       688.582800        98.080800       684.530500       -21.441700       687.573200      -142.009300        59.961590        -0.006409
1643124135.0000    309042.100000        63.208500    309490.600000       -56.958860    307956.400000      -176.997100       688.767600        83.821050       683.513800       -35.574300       688.129900      -156.161700        59.959980        -0.006180
1643124136.0000    308991.800000        48.714750    309491.500000       -71.449100    307956.500000       168.500900       689.133500        69.329780       684.140800       -50.046650       688.933500      -170.675200        59.958930        -0.043259
1643124137.0000    309094.900000        34.653260    309520.400000       -85.509370    308027.200000       154.448200       688.912700        55.240440       684.304100       -64.110310       688.479300       175.244600        59.961930         0.004807
1643124138.0000    309137.200000        21.206200    309565.900000       -98.952640    308085.500000       141.003000       689.031900        41.827510       684.076600       -77.575570       688.652700       161.795500        59.964160        -0.010071
1643124139.0000    308911.800000         8.489544    309408.600000      -111.692100    307774.800000       128.265400       688.516400        28.989160       684.686400       -90.361210       688.926500       148.996400        59.965690         0.033188
1643124140.0000    308963.900000        -4.115679    309454.100000      -124.267800    307975.800000       115.671900       688.888900        16.363680       683.202300      -102.941900       688.816300       136.466500        59.966360         0.041428
1643124141.0000    309014.900000       -16.140290    309433.800000      -136.303600    307934.300000       103.653300       689.209600         4.461133       683.739800      -114.922300       688.211200       124.496300        59.967260         0.010071
1643124142.0000    308924.900000       -27.915950    309357.100000      -148.079000    307873.600000        91.877240       689.537400        -7.370708       683.458800      -126.758100       688.042500       112.710200        59.967920         0.049667
1643124143.0000    308995.400000       -39.047400    309499.000000      -159.198500    308001.100000        80.742360       688.746500       -18.551220       682.722700      -137.895700       688.222500       101.519400        59.969840         0.015793
1643124144.0000    309096.000000       -49.542740    309503.500000      -169.705800    308001.300000        70.254410       688.693500       -28.926240       683.738700      -148.348000       687.874600        91.087630        59.971370        -0.005951
1643124145.0000    309024.600000       -59.719310    309433.800000      -179.889600    307882.800000        60.073360       688.477200       -39.116310       684.745400      -158.597500       688.318800        80.780620        59.972400        -0.007095
1643124146.0000    308998.600000       -69.360880    309419.600000       170.486400    307960.600000        50.441330       689.367600       -48.840950       683.438800      -168.218100       688.158400        71.228340        59.974270         0.028152
1643124147.0000    309121.200000       -78.906490    309575.100000       160.928700    308046.600000        40.886660       688.292200       -58.189420       683.566500      -177.588900       687.744100        61.802220        59.973500        -0.013733
1643124148.0000    309059.300000       -88.277690    309507.500000       151.552400    307952.600000        31.506940       688.121800       -67.625200       683.241900       173.046000       687.902100        52.405410        59.973450        -0.068436
1643124149.0000    309052.000000       -97.323960    309497.400000       142.502800    307936.200000        22.463010       687.862900       -76.634740       683.923000       163.972600       688.036400        43.358500        59.975380        -0.022659
1643124150.0000    309091.000000      -105.897000    309524.200000       133.931900    307966.000000        13.894590       688.896400       -85.244480       684.131000       155.355800       688.696400        34.706720        59.977880         0.039597
1643124151.0000    308902.300000      -113.441100    309362.400000       126.414100    307914.300000         6.360983       689.834700       -93.030420       683.260000       147.616000       688.304400        27.060530        59.980090         0.019913
1643124152.0000    309055.100000      -120.379200    309529.600000       119.467100    308048.400000        -0.584582       689.304700       -99.861040       683.877600       140.781900       688.706200        20.213790        59.981240        -0.003433
1643124153.0000    309103.900000      -126.789600    309580.300000       113.045600    308053.100000        -7.005303       688.431700      -106.095100       684.013700       134.534100       688.210700        13.907550        59.982940         0.005264
1643124154.0000    309049.100000      -132.608700    309523.700000       107.219900    307939.200000       -12.824530       688.201300      -111.915300       683.696500       128.737900       688.242200         8.085242        59.985700         0.031586
1643124155.0000    308962.300000      -137.769500    309440.300000       102.059400    307882.800000       -17.986050       689.793900      -117.257500       684.959100       123.396200       690.096700         2.736988        59.988480         0.033417
1643124156.0000    308901.000000      -141.847200    309380.900000        98.002070    307915.600000       -22.054820       689.696400      -121.429300       683.830400       119.211800       688.960400        -1.356626        59.987950        -0.009842
1643124157.0000    309065.600000      -145.787700    309554.000000        94.043930    308003.900000       -26.003050       688.599200      -125.147400       684.375600       115.498300       688.925200        -5.184200        59.990960         0.028610
1643124158.0000    309073.700000      -149.219700    309549.000000        90.614050    308001.400000       -29.431670       689.145600      -128.569400       684.167700       112.089200       688.132600        -8.589329        59.991960         0.013504
1643124159.0000    308941.600000      -151.625100    309447.100000        88.220540    307931.600000       -31.834670       689.185900      -131.069000       683.970500       109.603600       689.311000       -11.031040        59.993410        -0.030670
1643124160.0000    309047.500000      -153.407900    309499.900000        86.426900    307971.800000       -33.615010       689.564300      -132.799700       684.390900       107.783900       689.053500       -12.770260        59.997200        -0.009384
1643124161.0000    308967.600000      -154.294500    309459.900000        85.543400    307931.100000       -34.506520       688.761800      -133.676500       684.058500       106.987600       689.136300       -13.674350        59.997630        -0.032730
1643124162.0000    308891.300000      -154.916100    309360.900000        84.917120    307821.900000       -35.127190       690.233200      -134.408400       684.944500       106.196600       689.484700       -14.415540        59.997230        -0.073471
1643124163.0000    308875.200000      -155.025200    309289.000000        84.813340    307801.000000       -35.226880       690.677100      -134.496200       685.265700       106.121700       689.896000       -14.473720        60.000840         0.011215
1643124164.0000    308938.700000      -154.993300    309415.200000        84.837970    307844.800000       -35.210910       689.639000      -134.429100       684.702400       106.182600       689.644300       -14.393390        60.001210         0.011902
1643124165.0000    309002.500000      -154.958500    309506.900000        84.879030    307961.400000       -35.177000       689.053200      -134.306900       683.954700       106.354300       689.085300       -14.287720        59.999090        -0.014648
1643124166.0000    308855.900000      -155.394300    309213.500000        84.432680    307702.200000       -35.591990       688.910300      -134.853100       685.176100       105.625700       687.923800       -14.960630        59.997610        -0.029526
1643124167.0000    308817.500000      -156.374100    309382.400000        83.446180    307720.000000       -36.607740       687.395400      -135.877200       683.804100       104.817400       688.638700       -15.924990        59.999500         0.095673
1643124168.0000    308849.100000      -157.477500    309459.000000        82.338900    307785.100000       -37.714050       688.036100      -136.933200       684.555100       103.760800       688.961700       -16.983050        59.994590        -0.023804
1643124169.0000    308760.600000      -159.507900    309253.000000        80.357470    307850.600000       -39.708000       689.742900      -139.093400       683.087000       101.544500       689.117100       -18.971400        59.993560         0.008469
1643124170.0000    308831.700000      -161.992100    309238.500000        77.841740    307731.000000       -42.197910       689.222900      -141.479200       684.717100        99.084260       688.539200       -21.508830        59.992050         0.035019
1643124171.0000    308948.900000      -165.205500    309466.300000        74.619780    307857.700000       -45.428630       687.919700      -144.482500       683.463300        96.170930       688.057900       -24.520370        59.990210        -0.007553
1643124172.0000    308884.800000      -169.168500    309269.200000        70.656090    307716.100000       -49.373810       689.224100      -148.585600       684.391800        91.909680       687.814300       -28.686700        59.987450        -0.015335
1643124173.0000    308988.900000      -173.884400    309472.000000        65.951520    307909.700000       -54.100820       687.548600      -153.131700       683.028700        87.522820       687.528000       -33.125160        59.986160         0.008240
1643124174.0000    308852.500000      -179.826500    309383.000000        59.988490    307724.300000       -60.061530       686.946100      -159.268500       683.388700        81.488800       688.409700       -39.282330        59.982190        -0.030441
1643124175.0000    308937.800000       173.561700    309437.600000        53.401390    307913.800000       -66.655540       687.833400      -165.761500       683.037200        74.906010       688.003100       -45.766130        59.980210        -0.024033
1643124176.0000    308975.300000       166.095500    309455.900000        45.939380    307947.500000       -74.115560       687.101600      -173.132900       682.740700        67.528850       687.456600       -53.092190        59.978000        -0.005035
1643124177.0000    308897.200000       158.327300    309328.700000        38.143320    307722.000000       -81.887000       687.226800       178.935200       683.634900        59.478930       687.209600       -61.159640        59.978010        -0.047836
1643124178.0000    308876.700000       150.315300    309315.700000        30.156090    307814.800000       -89.890520       688.766800       170.886400       683.426600        51.522920       688.067600       -69.078160        59.977280         0.054932
1643124179.0000    308985.000000       141.544800    309461.200000        21.377290    307928.400000       -98.671890       687.598300       162.280400       682.752900        42.928570       687.523300       -77.660230        59.974960        -0.024490
