Terminal: LT 500  CLAUDIA - PARANAITA C3
Tensão base: 500 kV
SOC inicial: 1643124120
SOC final: 1643124179
Taxa: 1 fasores/s
Total de frames faltantes: - 

Tempo_(SOC)           VA_mod_(V)     VA_ang_(graus)     VB_mod_(V)     VB_ang_(graus)     VC_mod_(V)     VC_ang_(graus)     IA_mod_(A)     IA_ang_(graus)     IB_mod_(A)     IB_ang_(graus)     IC_mod_(A)     IC_ang_(graus)     Frequência        Delta_Freq     Faltante
1643124120.0000    304658.800000       -24.061870    303864.000000      -143.647500    307120.800000        96.097410       909.666200       161.051200       934.250300        40.439000       908.890900       -80.274270        59.975590        -0.024719
1643124121.0000    304751.700000       -33.185640    303989.100000      -152.778900    307231.400000        86.969360       908.439400       151.871400       933.664100        31.239080       908.145900       -89.465040        59.976670         0.046463
1643124122.0000    304645.700000       -42.568490    303901.200000      -162.150000    307162.800000        77.590710       909.714800       142.588000       934.735400        21.953280       909.222000       -98.724080        59.973550         0.028152
1643124123.0000    304683.400000       -52.626430    303942.700000      -172.220300    307167.400000        67.527750       909.643600       132.556500       934.610700        11.946840       909.301700      -108.760900        59.972610         0.030670
1643124124.0000    304569.100000       -62.835300    303832.400000       177.574700    307074.800000        57.316680       909.957000       122.385200       934.596600         1.752947       909.782000      -118.964200        59.971070         0.014420
1643124125.0000    304482.000000       -73.497250    303742.700000       166.913400    306981.700000        46.659560       909.288800       111.729200       934.547000        -8.886866       909.264600      -129.595700        59.967460        -0.026550
1643124126.0000    304475.800000       -84.640830    303717.200000       155.766500    306971.200000        35.514030       910.555300       100.634400       935.193700       -20.025970       910.198300      -140.703400        59.970340         0.049667
1643124127.0000    304624.900000       -96.387250    303845.700000       144.025200    307105.800000        23.771530       908.321900        88.887990       932.538000       -31.744370       907.331500      -152.451900        59.968520         0.005264
1643124128.0000    304764.400000      -107.638000    303995.300000       132.778000    307260.700000        12.516820       908.674700        77.538930       933.143600       -43.106250       907.836200      -163.794400        59.969840         0.028839
1643124129.0000    304666.400000      -119.022000    303887.500000       121.391300    307138.400000         1.136365       908.163500        66.231610       932.884800       -54.406440       907.431200      -175.119800        59.966740         0.022659
1643124130.0000    304511.100000      -130.363300    303771.200000       110.049000    307005.300000       -10.210310       909.698100        54.844520       934.863200       -65.777510       909.466600       173.507900        59.967450        -0.013275
1643124131.0000    304522.300000      -141.847300    303770.300000        98.562660    307001.800000       -21.694220       909.028100        43.337670       934.024500       -77.283410       908.659100       162.018000        59.968310         0.028610
1643124132.0000    304721.400000      -154.183500    303967.200000        86.224680    307210.100000       -34.031760       907.241800        30.923830       932.365200       -89.719240       907.147500       149.609400        59.964730        -0.006180
1643124133.0000    304747.200000      -167.152100    303964.200000        73.255660    307210.900000       -46.999660       907.877300        18.056230       932.702000      -102.587700       907.628300       136.682000        59.964570         0.040054
1643124134.0000    304642.500000       179.301600    303865.700000        59.710430    307103.100000       -60.542080       909.005900         4.390310       933.436900      -116.241200       908.122100       123.044400        59.962220        -0.003891
1643124135.0000    304777.900000       164.973700    303994.900000        45.381540    307256.700000       -74.868630       908.100400        -9.938003       932.735400      -130.570600       907.548000       108.749500        59.958870        -0.024033
1643124136.0000    304741.500000       150.496700    303971.900000        30.908240    307224.700000       -89.345310       908.142900       -24.448040       933.275800      -145.086000       908.365600        94.201990        59.960900         0.026093
1643124137.0000    304784.800000       136.482000    304020.400000        16.894140    307264.500000      -103.360700       908.254900       -38.404730       933.056600      -159.030100       907.439200        80.248210        59.962390         0.035934
1643124138.0000    304691.900000       123.139300    303931.300000         3.549853    307176.600000      -116.708700       908.665200       -51.724210       933.379500      -172.363500       908.346200        66.945790        59.963130         0.091782
1643124139.0000    304769.100000       110.338700    304017.400000        -9.249523    307256.200000      -129.506600       907.875900       -64.573390       932.509000       174.814100       907.732100        54.168300        59.964660        -0.003662
1643124140.0000    304729.200000        97.767560    303979.000000       -21.821110    307231.500000      -142.078800       908.026300       -77.064920       932.458100       162.291600       907.287800        41.590810        59.964510        -0.025177
1643124141.0000    304651.100000        85.773830    303874.900000       -33.810130    307155.800000      -154.067400       908.058500       -89.025250       932.837300       150.331800       907.618500        29.651220        59.966790        -0.008698
1643124142.0000    304679.900000        73.992750    303922.100000       -45.594710    307182.700000      -165.852200       908.402700      -100.776500       932.720800       138.581100       907.778900        17.886670        59.967510         0.006638
1643124143.0000    304643.300000        62.805270    303898.000000       -56.782960    307138.400000      -177.038900       908.486100      -112.006800       933.189000       127.355000       908.433500         6.666748        59.970920         0.050354
1643124144.0000    304774.600000        52.235910    304008.300000       -67.345120    307290.300000       172.392700       906.171900      -122.641400       930.759000       116.719500       905.618400        -3.971112        59.970470        -0.088577
1643124145.0000    304664.000000        42.258590    303902.400000       -77.321980    307183.600000       162.419700       908.663200      -132.535600       932.727300       106.830400       908.059400       -13.887600        59.971930        -0.028839
1643124146.0000    304656.600000        32.623390    303898.300000       -86.956250    307176.200000       152.781800       909.299900      -142.228300       933.867800        97.148730       908.926000       -23.543260        59.973160        -0.005951
1643124147.0000    304615.200000        23.069280    303821.800000       -96.517900    307095.600000       143.227500       908.408500      -151.698700       933.795100        87.659550       908.488500       -33.028650        59.971680         0.018311
1643124148.0000    304778.500000        13.561870    303988.000000      -106.026200    307274.300000       133.720300       908.276100      -161.359900       932.888500        78.081540       908.015700       -42.622120        59.974670         0.024490
1643124149.0000    304846.900000         4.504598    304086.400000      -115.082700    307343.900000       124.663100       908.238000      -170.380000       932.461700        68.952030       907.733000       -51.754800        59.975080        -0.044861
1643124150.0000    304787.400000        -4.006971    304018.300000      -123.593000    307278.500000       116.151600       907.893200      -178.860700       932.347800        60.512750       907.221900       -60.183570        59.977700         0.010529
1643124151.0000    304785.000000       -11.495600    304012.900000      -131.085900    307295.500000       108.661000       907.914300       173.590100       932.537300        52.939350       907.333500       -67.742990        59.978880         0.008698
1643124152.0000    304771.200000       -18.421680    304018.200000      -138.014500    307269.300000       101.730000       907.903900       166.641400       932.843000        46.017620       907.796500       -74.694950        59.981950         0.005951
1643124153.0000    304608.100000       -24.809060    303871.000000      -144.402600    307087.700000        95.343540       907.567000       160.332500       932.196800        39.720270       907.232700       -80.992030        59.982360         0.008240
1643124154.0000    304817.400000       -30.811970    304037.900000      -150.401900    307292.900000        89.345200       908.533600       154.308900       933.509200        33.669400       908.009400       -87.072330        59.986790         0.000916
1643124155.0000    304771.800000       -35.832780    304021.600000      -155.422300    307262.500000        84.321100       907.734100       149.347300       932.866300        28.702780       907.467500       -91.981220        59.988580         0.070724
1643124156.0000    304731.000000       -40.145150    303980.000000      -159.735100    307212.600000        80.008720       907.123400       144.982900       931.996000        24.340930       906.949800       -96.332250        59.989110        -0.016022
1643124157.0000    304611.200000       -43.896680    303851.200000      -163.483300    307093.800000        76.259270       908.409700       141.309300       932.787000        20.683310       907.415200      -100.030700        59.986910        -0.059280
1643124158.0000    304865.100000       -47.464960    304057.500000      -167.054200    307341.100000        72.692810       906.631900       137.642100       930.316500        17.000650       905.377200      -103.699300        59.992390         0.014420
1643124159.0000    304764.400000       -49.850830    303999.100000      -169.441800    307236.300000        70.304050       907.321600       135.280400       932.102500        14.612570       907.189500      -106.072000        59.994110         0.030670
1643124160.0000    304801.800000       -51.601080    304022.900000      -171.189400    307277.100000        68.555300       906.654100       133.542600       931.412200        12.885050       906.357200      -107.796900        59.995530        -0.018311
1643124161.0000    304673.900000       -52.550870    303920.800000      -172.138100    307161.000000        67.606510       907.162200       132.572900       931.789600        11.932210       906.648800      -108.751600        59.995610        -0.052872
1643124162.0000    304697.800000       -53.057830    303959.000000      -172.651000    307189.800000        67.096500       906.763000       132.122600       931.824200        11.501970       906.148100      -109.185200        59.997870         0.017853
1643124163.0000    304605.900000       -53.039180    303843.100000      -172.632000    307078.600000        67.113990       907.191800       132.082200       932.032200        11.434840       906.815200      -109.245700        60.001340         0.011215
1643124164.0000    304727.200000       -53.135780    303947.200000      -172.728600    307198.000000        67.019210       907.677300       132.058400       932.251100        11.424630       906.636700      -109.282400        60.001330         0.038223
1643124165.0000    304654.400000       -53.160370    303893.200000      -172.755400    307129.100000        66.991300       909.121300       132.056700       933.607800        11.452790       908.619600      -109.256000        60.001060         0.063629
1643124166.0000    304633.600000       -53.469960    303887.200000      -173.059000    307136.100000        66.684920       907.786900       131.667200       932.816200        11.035960       907.643900      -109.664600        59.997720        -0.035934
1643124167.0000    304567.300000       -54.415040    303781.800000      -174.005200    307030.500000        65.743480       908.230200       130.820500       932.720500        10.174030       907.396300      -110.519500        59.994410        -0.051041
1643124168.0000    304640.100000       -55.813060    303867.200000      -175.401200    307117.800000        64.346040       906.264200       129.369500       930.764000         8.736752       905.552600      -111.967200        59.995930         0.022659
1643124169.0000    304623.400000       -57.714800    303865.700000      -177.304000    307120.400000        62.442680       904.815900       127.489600       929.449800         6.842214       904.698900      -113.869000        59.993560         0.031586
1643124170.0000    304724.800000       -60.282310    303971.600000      -179.868600    307206.000000        59.877860       906.017000       124.876700       930.657400         4.254266       905.039600      -116.433500        59.992530        -0.015793
1643124171.0000    304642.300000       -63.391150    303868.000000       177.018300    307107.100000        56.764050       907.087000       121.816700       931.729900         1.158332       906.641400      -119.537300        59.988650        -0.048981
1643124172.0000    304761.300000       -67.335240    303950.300000       173.076100    307222.000000        52.825780       906.163200       117.828000       930.931100        -2.838442       905.373800      -123.508700        59.988770         0.038910
1643124173.0000    304681.900000       -67.781680    303929.800000       172.629500    307176.100000        52.374000       905.460300       117.349700       930.404800        -3.263232       905.297500      -123.944400        59.987260         0.037079          *
1643124174.0000    304681.900000       -67.781680    303929.800000       172.629500    307176.100000        52.374000       905.460300       117.349700       930.404800        -3.263232       905.297500      -123.944400        59.987260         0.037079          *
1643124175.0000    304681.900000       -67.781680    303929.800000       172.629500    307176.100000        52.374000       905.460300       117.349700       930.404800        -3.263232       905.297500      -123.944400        59.987260         0.037079          *
1643124176.0000    304681.900000       -67.781680    303929.800000       172.629500    307176.100000        52.374000       905.460300       117.349700       930.404800        -3.263232       905.297500      -123.944400        59.987260         0.037079          *
1643124177.0000    304681.900000       -67.781680    303929.800000       172.629500    307176.100000        52.374000       905.460300       117.349700       930.404800        -3.263232       905.297500      -123.944400        59.987260         0.037079          *
1643124178.0000    304681.900000       -67.781680    303929.800000       172.629500    307176.100000        52.374000       905.460300       117.349700       930.404800        -3.263232       905.297500      -123.944400        59.987260         0.037079          *
1643124179.0000    304681.900000       -67.781680    303929.800000       172.629500    307176.100000        52.374000       905.460300       117.349700       930.404800        -3.263232       905.297500      -123.944400        59.987260         0.037079          *
