Terminal: LT 500  IGAPORA III - JANAUBA 3 CL7
Tensão base: 500 kV
SOC inicial: 1643124120
SOC final: 1643124179
Taxa: 1 fasores/s
Total de frames faltantes: - 

Tempo_(SOC)           VA_mod_(V)     VA_ang_(graus)     VB_mod_(V)     VB_ang_(graus)     VC_mod_(V)     VC_ang_(graus)     IA_mod_(A)     IA_ang_(graus)     IB_mod_(A)     IB_ang_(graus)     IC_mod_(A)     IC_ang_(graus)     Frequência        Delta_Freq     Faltante
1643124120.0000    310154.200000       -39.041610    308945.800000      -159.529600    308404.500000        80.748890       153.142600        12.661640       164.590600      -115.672400       157.427300       128.676600        59.974390        -0.022659
1643124121.0000    310125.500000       -48.064500    308938.200000      -168.545700    308411.000000        71.721660       153.874300         3.272728       164.881200      -124.974900       158.218300       119.585700        59.973710        -0.027008
1643124122.0000    310067.400000       -57.517040    308901.800000      -178.003000    308351.300000        62.266870       153.931200        -6.019810       164.862600      -134.518900       158.150600       110.139800        59.973830         0.047379
1643124123.0000    310033.700000       -67.507800    308862.400000       172.006600    308309.100000        52.280030       153.749500       -16.135160       165.583900      -144.462800       158.613000       100.009900        59.972230         0.029297
1643124124.0000    310084.200000       -77.837120    308902.900000       161.677800    308352.100000        41.948700       154.290300       -26.390660       164.896600      -154.671000       158.239000        89.899970        59.971150        -0.007553
1643124125.0000    310005.500000       -88.473250    308864.800000       151.045600    308323.600000        31.311610       153.449900       -36.939920       164.312200      -165.110200       157.928800        79.274040        59.970180         0.023117
1643124126.0000    310030.100000       -99.620870    308860.300000       139.894800    308296.500000        20.167640       153.865000       -48.148880       164.797900      -176.478700       157.760300        68.089570        59.968240        -0.019226
1643124127.0000    310031.200000      -111.193500    308876.000000       128.322600    308306.900000         8.591481       153.601200       -59.691860       165.041700       171.944700       158.280500        56.268880        59.967030        -0.006409
1643124128.0000    310151.300000      -122.594600    308975.300000       116.921100    308436.700000        -2.804991       153.165700       -70.863120       163.939300       160.895800       157.574400        45.317450        59.971060         0.091095
1643124129.0000    310037.400000      -133.772900    308848.100000       105.739300    308279.600000       -13.983160       153.076400       -82.354550       164.438700       149.300800       157.814300        33.905760        59.968600        -0.011673
1643124130.0000    310062.800000      -145.261300    308883.600000        94.251640    308320.500000       -25.477820       153.190100       -93.870750       164.588500       137.753800       157.567100        22.264440        59.967520         0.014191
1643124131.0000    309976.200000      -156.751200    308825.700000        82.760030    308235.800000       -36.967400       152.709000      -105.243900       164.161300       126.366100       157.433200        10.749790        59.965710        -0.101395
1643124132.0000    309946.900000      -168.833400    308757.200000        70.680610    308224.400000       -49.044840       153.457500      -117.800900       164.663000       114.040000       157.779000        -1.607137        59.966090         0.020599
1643124133.0000    309973.800000       178.050800    308778.400000        57.561350    308194.400000       -62.161430       152.987600      -130.610600       164.770000       101.091900       157.063000       -14.510640        59.962830         0.012131
1643124134.0000    310028.900000       164.419700    308805.000000        43.927230    308242.700000       -75.793690       153.268200      -144.194800       164.105100        87.409610       157.261900       -27.845450        59.962020         0.002518
1643124135.0000    309983.600000       150.258900    308787.800000        29.767650    308207.600000       -89.954450       153.007300      -158.478800       164.125200        73.072550       157.023500       -42.387920        59.959300        -0.013504
1643124136.0000    310062.700000       135.665300    308869.800000        15.179140    308295.200000      -104.546000       153.245400      -173.062700       164.121600        58.687600       157.532100       -56.752030        59.959130        -0.030441
1643124137.0000    310034.600000       121.794800    308845.100000         1.308540    308299.800000      -118.420300       153.332800       172.720800       165.369100        44.337870       158.078400       -71.175110        59.962380         0.026321
1643124138.0000    309964.600000       108.534400    308769.200000       -11.952680    308234.000000      -131.678300       153.617200       159.055100       165.459400        30.920780       158.137800       -84.421180        59.963690         0.022888
1643124139.0000    310026.600000        95.650470    308850.700000       -24.835240    308315.100000      -144.564100       153.724900       146.700000       165.374800        18.352410       158.249400       -97.201900        59.965310         0.071640
1643124140.0000    309917.300000        83.220830    308739.300000       -37.261510    308208.300000      -156.989000       153.808400       134.096400       165.468400         5.882545       158.182200      -109.743300        59.964830        -0.007324
1643124141.0000    309950.900000        71.113220    308769.200000       -49.374060    308216.700000      -169.102200       153.677300       122.012200       164.784100        -6.353468       157.600600      -121.734400        59.966380         0.019684
1643124142.0000    309909.000000        59.462790    308731.000000       -61.015590    308216.200000       179.251100       153.720800       110.279400       165.408500       -18.138300       158.819300      -133.551600        59.968010        -0.005264
1643124143.0000    309962.000000        48.248550    308744.300000       -72.231320    308225.200000       168.040900       153.625000        99.164340       165.415500       -29.035750       158.187700      -144.535400        59.970820         0.035706
1643124144.0000    309932.100000        37.686660    308762.100000       -82.788280    308263.800000       157.481400       153.562900        88.763460       165.289700       -39.654540       158.331200      -154.857400        59.971870         0.016251
1643124145.0000    309867.500000        27.734370    308662.500000       -92.743450    308155.000000       147.529200       153.646500        78.525030       165.543600       -49.771390       158.206800      -165.337300        59.969760        -0.154038
1643124146.0000    309877.300000        18.065090    308693.200000      -102.414600    308162.700000       137.855600       154.155000        68.840030       165.712200       -59.404640       158.735600      -174.864300        59.973030        -0.015106
1643124147.0000    309875.100000         8.586653    308742.800000      -111.906500    308123.900000       128.362700       153.867200        59.255640       166.035700       -68.900470       158.785800       175.464400        59.974810         0.076447
1643124148.0000    309918.800000        -0.929963    308787.200000      -121.428800    308172.600000       118.840300       153.799800        49.783450       165.619400       -78.390720       158.420700       165.794200        59.975120         0.074387
1643124149.0000    309954.600000       -10.013090    308791.900000      -130.506700    308196.500000       109.766900       154.218500        40.972290       165.840100       -87.324130       158.828600       157.185700        59.976000         0.041656
1643124150.0000    310033.100000       -18.582450    308864.600000      -139.076200    308278.100000       101.197300       154.255200        32.412340       166.127300       -96.003580       158.875000       148.332700        59.976820        -0.008240
1643124151.0000    310085.200000       -26.208350    308922.600000      -146.708300    308293.200000        93.567440       153.416100        25.122410       165.055200      -103.189600       157.949700       141.025900        59.979830         0.017853
1643124152.0000    310001.600000       -33.048270    308824.000000      -153.550000    308210.200000        86.729540       152.948200        18.043050       165.013700      -110.218700       157.601300       134.349600        59.982190         0.019226
1643124153.0000    310053.300000       -39.531270    308882.800000      -160.031200    308275.800000        80.248160       153.082400        11.692330       165.320400      -116.636300       158.211200       128.027300        59.982600         0.024948
1643124154.0000    310154.600000       -45.587950    308970.400000      -166.086800    308361.600000        74.190930       153.641100         5.679353       165.415600      -122.513900       158.414000       122.044400        59.985380         0.046692
1643124155.0000    310167.100000       -50.601060    308987.100000      -171.099600    308374.200000        69.180820       154.122900         0.677440       165.870600      -127.719300       158.872600       116.798300        59.987910         0.069122
1643124156.0000    310096.800000       -54.899880    308943.100000      -175.399000    308329.100000        64.878430       154.431600        -3.714882       166.236700      -131.835200       159.224900       112.649700        59.989390        -0.010300
1643124157.0000    310071.200000       -58.631870    308883.400000      -179.131000    308301.100000        61.151410       154.523900        -7.569406       166.160500      -135.768500       158.734500       108.558200        59.989090        -0.024033
1643124158.0000    310201.800000       -62.157600    309021.700000       177.340100    308416.300000        57.619780       154.481800       -11.015960       165.576000      -139.266400       158.807700       105.231300        59.991720        -0.005493
1643124159.0000    310227.100000       -64.674290    309053.500000       174.827900    308454.600000        55.102590       154.183300       -13.257310       164.839400      -141.565400       158.645900       102.982100        59.993500        -0.010986
1643124160.0000    310196.400000       -66.275930    308994.800000       173.220900    308387.300000        53.505240       154.532000       -15.053700       165.813100      -143.291900       158.393300       101.278200        59.997060         0.004349
1643124161.0000    310282.300000       -67.357630    309077.800000       172.142200    308488.300000        52.426550       154.181300       -16.010490       165.201200      -144.402600       158.579700       100.316300        59.998370         0.033417
1643124162.0000    310267.700000       -67.760720    309029.300000       171.737000    308425.400000        52.025850       155.282900       -16.540080       167.088700      -145.062900       159.502500        99.386540        59.998320        -0.062714
1643124163.0000    310223.300000       -67.755910    309014.900000       171.740600    308400.900000        52.026150       154.975300       -16.472100       166.048800      -144.796000       158.412500        99.656910        59.999890        -0.065689
1643124164.0000    310215.000000       -67.775170    309029.000000       171.719800    308413.200000        52.002580       154.675100       -16.679030       166.323500      -144.785900       158.755800        99.701080        60.000290         0.034103
1643124165.0000    310294.100000       -67.989220    309134.300000       171.506400    308497.400000        51.787990       153.727300       -16.695720       165.291700      -144.874600       158.413900        99.561840        60.002450         0.237808
1643124166.0000    310142.500000       -68.143460    308969.000000       171.362300    308391.400000        51.634560       154.148200       -16.922260       165.808200      -145.121300       158.970900        99.399930        60.003080         0.164795
1643124167.0000    310167.900000       -69.028790    308939.900000       170.484800    308420.300000        50.764940       154.859900       -18.125900       166.469400      -146.348400       159.367100        98.264440        59.996910         0.005035
1643124168.0000    310250.100000       -70.641490    309019.400000       168.875100    308533.300000        49.150890       154.705500       -19.345500       164.944900      -147.588000       158.875900        97.003870        59.995880         0.035706
1643124169.0000    310188.900000       -72.435790    308949.200000       167.079200    308447.500000        47.357340       154.520600       -21.305530       165.781800      -149.420800       158.705900        95.332570        59.994010        -0.000458
1643124170.0000    310203.500000       -75.071470    308948.000000       164.444400    308453.000000        44.728720       154.471900       -23.577790       165.037200      -151.985900       158.240900        92.750890        59.990310        -0.083542
1643124171.0000    310191.500000       -78.159310    308979.600000       161.359300    308461.000000        41.635070       154.506000       -27.016920       165.641000      -155.235100       158.647000        89.616030        59.991830         0.053787
1643124172.0000    310179.600000       -82.021530    308937.800000       157.494900    308430.200000        37.773550       154.727100       -31.094050       165.528700      -159.304400       158.889700        85.427390        59.988040         0.001831
1643124173.0000    310229.500000       -86.842350    309008.700000       152.672400    308502.100000        32.951660       153.728100       -35.765020       165.109200      -163.926600       158.656300        80.684560        59.986460         0.053329
1643124174.0000    310112.600000       -92.476120    308911.600000       147.040000    308371.800000        27.314420       153.904600       -41.722730       164.833900      -169.895200       158.563700        74.818020        59.981910        -0.087433
1643124175.0000    310203.500000       -99.232800    308982.700000       140.281800    308457.400000        20.559720       153.405200       -48.135210       164.624700      -176.462000       157.761400        68.195350        59.981090         0.086060
1643124176.0000    310221.300000      -106.730100    309005.900000       132.787500    308489.500000        13.061570       153.918700       -55.833520       164.322200       175.914500       158.326300        60.612550        59.979210        -0.001373
1643124177.0000    310261.300000      -114.730400    309079.000000       124.789400    308558.000000         5.056387       154.233700       -63.618250       164.901000       168.161400       158.305300        52.806910        59.978780         0.057220
1643124178.0000    310224.100000      -122.600800    309025.300000       116.912500    308503.300000        -2.811779       154.077600       -71.434050       164.793000       160.366700       158.465400        44.949060        59.978470         0.059738
1643124179.0000    310133.600000      -131.192000    308952.800000       108.327000    308424.500000       -11.404420       153.923100       -80.314620       164.858100       151.371500       158.582800        35.960010        59.973950        -0.026779
