Terminal: LT 500  BACABEIRA - PARNAIBA III C2
Tensão base: 500 kV
SOC inicial: 1643124120
SOC final: 1643124179
Taxa: 1 fasores/s
Total de frames faltantes: - 

Tempo_(SOC)           VA_mod_(V)     VA_ang_(graus)     VB_mod_(V)     VB_ang_(graus)     VC_mod_(V)     VC_ang_(graus)     IA_mod_(A)     IA_ang_(graus)     IB_mod_(A)     IB_ang_(graus)     IC_mod_(A)     IC_ang_(graus)     Frequência        Delta_Freq     Faltante
1643124120.0000    311859.200000       -22.106820    312364.600000      -142.157000    311860.700000        97.775140        61.593480        50.287920        60.676360       -79.236120        53.397900       165.989500        59.974950        -0.010986
1643124121.0000    311819.400000       -31.123850    312367.400000      -151.173900    311832.100000        88.755570        61.072620        40.865400        60.733540       -88.938100        52.991420       156.713300        59.973800        -0.033875
1643124122.0000    311832.900000       -40.545650    312385.300000      -160.597300    311844.600000        79.328250        61.417920        31.133120        60.541940       -98.923380        52.876740       147.534600        59.973830         0.029984
1643124123.0000    311857.200000       -50.518930    312427.100000      -170.570500    311860.800000        69.354300        61.535190        20.568940        61.622200      -109.146300        53.402280       136.516000        59.971320        -0.012131
1643124124.0000    311876.200000       -60.929300    312461.300000       179.019300    311882.100000        58.942450        60.477920        10.967020        61.037070      -118.514800        52.892440       126.455800        59.971410         0.010300
1643124125.0000    311836.800000       -71.471380    312363.300000       168.476600    311832.400000        48.406270        61.565240        -0.595427        60.249530      -130.211600        53.649250       115.735300        59.969870        -0.002975
1643124126.0000    311853.500000       -82.640370    312360.600000       157.303700    311819.400000        37.238950        61.947120       -11.609440        61.033950      -141.577600        52.872650       104.046400        59.968350         0.010071
1643124127.0000    311840.000000       -94.208790    312396.600000       145.734500    311839.100000        25.665220        61.238320       -22.678660        61.397420      -153.108700        53.545230        92.632930        59.966530        -0.016479
1643124128.0000    311912.200000      -105.760200    312462.800000       134.188100    311897.000000        14.118630        60.210370       -33.252550        59.362510      -164.218100        51.383870        82.433160        59.969370        -0.009155
1643124129.0000    311863.500000      -116.825700    312414.000000       123.114600    311821.500000         3.049943        61.384880       -44.930730        61.523200      -174.879700        52.594040        70.745760        59.969680         0.016022
1643124130.0000    311805.800000      -128.292600    312355.400000       111.648900    311795.900000        -8.420992        61.235080       -56.137470        61.032360       173.564100        53.150980        59.196960        59.966810        -0.035706
1643124131.0000    311771.500000      -139.785500    312347.100000       100.151100    311737.300000       -19.918220        61.501410       -68.392380        61.987550       161.946700        53.424160        46.672140        59.967190        -0.042114
1643124132.0000    311743.700000      -151.747200    312297.800000        88.192730    311727.300000       -31.874990        62.696870       -81.480040        62.955820       148.804700        54.233400        34.241630        59.965160        -0.006638
1643124133.0000    311730.600000      -164.932600    312277.400000        75.011930    311706.800000       -45.054050        62.464630       -94.389620        62.602670       135.949200        54.904910        21.337490        59.963280         0.076904
1643124134.0000    311807.100000      -178.657900    312348.200000        61.292530    311794.300000       -58.775120        61.418340      -107.859600        61.567590       122.697800        53.358200         7.848770        59.961090        -0.028152
1643124135.0000    311768.600000       167.271800    312307.900000        47.217200    311753.100000       -72.846080        62.215970      -122.402200        61.680430       107.825800        54.144730        -6.258828        59.960050         0.025864
1643124136.0000    311815.800000       152.603300    312384.400000        32.552110    311841.400000       -87.519380        61.486890      -136.573400        60.982190        93.462880        53.887290       -20.900440        59.960310         0.004349
1643124137.0000    311819.000000       138.745700    312396.800000        18.689450    311820.500000      -101.383900        60.189140      -149.197800        60.289220        81.179970        52.583020       -33.112400        59.962470         0.005722
1643124138.0000    311783.900000       125.589400    312321.500000         5.536936    311782.000000      -114.533900        61.486030      -162.939100        60.876210        66.891400        53.134190       -47.377220        59.964610         0.027924
1643124139.0000    311812.500000       112.677300    312322.600000        -7.372225    311813.800000      -127.441900        61.830940      -176.132100        61.226920        53.709000        53.263320       -59.436570        59.965170         0.010529
1643124140.0000    311769.100000       100.320800    312294.400000       -19.727940    311778.700000      -139.802200        61.951010       171.732900        61.688250        41.876560        53.894670       -72.218620        59.965460        -0.046692
1643124141.0000    311720.200000        88.161670    312321.400000       -31.888980    311764.200000      -151.967200        61.469920       159.599700        61.990910        30.230970        53.468210       -84.806100        59.966130        -0.061569
1643124142.0000    311757.100000        76.562690    312329.800000       -43.493940    311765.200000      -163.566900        62.305280       148.231600        62.102570        18.516280        54.062840       -96.049400        59.968400         0.015793
1643124143.0000    311838.200000        65.265560    312364.500000       -54.789770    311808.900000      -174.853900        61.290030       137.364200        61.495740         6.663704        52.776950      -107.016000        59.969390        -0.007782
1643124144.0000    311814.300000        54.704280    312375.300000       -65.349180    311805.700000       174.578700        60.975360       126.958700        60.949130        -3.059757        53.058750      -116.580200        59.971990         0.033646
1643124145.0000    311753.400000        44.839040    312309.800000       -75.207760    311807.700000       164.711700        61.598190       116.701900        61.761730       -13.239980        54.131480      -128.104800        59.972110        -0.069122
1643124146.0000    311821.300000        35.153210    312351.600000       -84.905030    311811.200000       155.032400        61.542250       107.637200        61.520840       -23.024510        53.614540      -136.953700        59.973110        -0.008698
1643124147.0000    311809.100000        25.703950    312339.500000       -94.356060    311786.100000       145.577800        61.198640        97.999350        60.521760       -31.986930        52.861680      -145.725200        59.974420         0.046921
1643124148.0000    311819.600000        16.162410    312365.000000      -103.899200    311791.500000       136.035500        61.968010        87.864570        61.196050       -41.319930        53.017280      -155.547800        59.973250         0.010757
1643124149.0000    311861.000000         6.985030    312363.300000      -113.070900    311836.200000       126.866000        60.816110        80.097490        59.605020       -50.131280        51.972930      -163.547100        59.975940         0.015106
1643124150.0000    311851.600000        -1.549106    312415.300000      -121.608200    311838.500000       118.320600        60.523450        70.688880        59.988440       -59.204890        52.401490      -173.082200        59.977070        -0.022659
1643124151.0000    311906.800000        -9.251701    312459.100000      -129.311000    311866.300000       110.617500        60.598400        63.195270        60.400300       -66.291280        52.965790       178.772900        59.980210        -0.016708
1643124152.0000    311860.100000       -16.005330    312391.900000      -136.068100    311796.200000       103.866900        61.547900        55.361460        61.191240       -74.542810        53.632790       171.264200        59.982230         0.004120
1643124153.0000    311845.900000       -22.528370    312400.700000      -142.575500    311893.700000        97.347960        61.293050        48.836040        60.403040       -80.448800        53.003890       165.808700        59.982860         0.014191
1643124154.0000    311918.000000       -28.596380    312453.400000      -148.649900    311919.000000        91.282910        61.050370        43.711520        60.618870       -86.678980        53.108600       159.992900        59.983910         0.009384
1643124155.0000    311947.800000       -33.630750    312493.800000      -153.686300    311930.200000        86.243090        60.863170        38.963250        60.402780       -91.574370        52.712390       154.010100        59.987900         0.056992
1643124156.0000    311870.500000       -37.892860    312440.200000      -157.949400    311865.200000        81.976060        61.055270        33.783150        60.934530       -96.467640        53.264160       149.677900        59.988630        -0.008698
1643124157.0000    311883.900000       -41.600420    312451.100000      -161.660600    311857.400000        78.270870        61.710410        30.378310        60.923820      -100.091300        52.765190       145.710400        59.990000        -0.002060
1643124158.0000    311929.700000       -45.189330    312491.300000      -165.242700    311934.800000        74.682480        60.928700        25.738370        60.757410      -103.032300        52.839510       141.254100        59.991280         0.008926
1643124159.0000    311954.400000       -47.800520    312456.300000      -167.851700    311922.300000        72.083050        60.217150        24.614540        59.580490      -105.466900        52.106470       140.688300        59.993910        -0.020599
1643124160.0000    311938.700000       -49.305380    312509.600000      -169.361300    311950.300000        70.565700        60.279650        22.316650        60.008900      -107.663000        52.668590       138.223300        59.997800         0.012131
1643124161.0000    311997.700000       -50.407670    312538.100000      -170.461400    311998.500000        69.471240        60.402000        20.949570        60.315690      -108.290200        53.008690       137.306600        59.998550         0.036850
1643124162.0000    311958.600000       -50.795040    312511.000000      -170.844100    311991.900000        69.082230        59.944780        22.186230        59.162040      -107.954100        51.783150       138.432200        59.999270        -0.044861
1643124163.0000    311983.700000       -50.777080    312557.300000      -170.838600    311966.200000        69.094840        59.435700        21.485910        59.304890      -107.961200        52.127740       138.448300        60.001060        -0.008240
1643124164.0000    311956.400000       -50.765870    312499.100000      -170.825700    311922.700000        69.104140        60.425920        21.683840        59.783420      -108.099200        52.730350       137.549000        59.999220        -0.009613
1643124165.0000    312001.700000       -51.083110    312600.600000      -171.147200    311965.700000        68.781870        59.352810        22.602130        59.438380      -107.738200        51.210860       138.706800        59.998870         0.027008
1643124166.0000    311948.300000       -51.187010    312510.900000      -171.242800    311944.800000        68.686980        59.875100        22.499900        59.031650      -107.756500        51.270550       138.343100        60.001720         0.112381
1643124167.0000    311955.200000       -52.020370    312497.600000      -172.060800    312004.300000        67.863540        60.343250        19.965070        59.332770      -108.982300        52.403830       137.077300        59.996050         0.031357
1643124168.0000    311967.300000       -53.794140    312523.500000      -173.836500    312048.900000        66.083620        59.869460        19.164380        59.256720      -110.960600        51.817540       135.241600        59.994760         0.011673
1643124169.0000    311998.200000       -55.579650    312582.300000      -175.636300    312006.300000        64.295020        59.147620        17.556170        58.514780      -112.684300        50.584940       133.780800        59.995400         0.030212
1643124170.0000    311967.000000       -58.163030    312511.900000      -178.218300    311981.400000        61.711520        59.574540        14.426660        59.239330      -115.322300        51.884320       130.502600        59.991970        -0.018997
1643124171.0000    311971.900000       -61.266090    312536.200000       178.689300    312009.500000        58.615860        59.889870        12.080770        58.838460      -117.945700        51.686030       128.220900        59.991810         0.083313
1643124172.0000    311934.600000       -65.068830    312420.100000       174.886500    311958.100000        54.818610        58.526620         9.324880        58.441280      -120.929600        50.641030       125.137300        59.987380        -0.008469
1643124173.0000    311927.700000       -69.937320    312482.100000       170.013800    311948.100000        49.941460        59.498120         3.271531        59.469070      -126.800900        51.851730       119.204500        59.985230        -0.007095
1643124174.0000    311899.500000       -75.526780    312435.600000       164.427500    311915.800000        44.354910        60.067710        -0.699146        59.949050      -131.183500        52.500390       115.527800        59.982740        -0.033875
1643124175.0000    311918.600000       -82.322660    312477.000000       157.624400    311932.700000        37.551840        59.219220        -8.494328        58.461280      -138.676500        51.328850       107.522800        59.979130         0.000229
1643124176.0000    311926.100000       -89.851730    312472.900000       150.101400    311941.600000        30.025500        58.791970       -16.176860        58.409000      -145.062400        51.135510       100.586100        59.979180         0.007324
1643124177.0000    311939.800000       -97.859050    312485.800000       142.092900    311976.200000        22.018830        59.415150       -21.982270        58.243350      -153.005400        50.654370        93.796540        59.977410         0.000687
1643124178.0000    311994.500000      -105.721300    312494.700000       134.229200    311990.800000        14.163250        58.848930       -30.512300        58.429360      -161.532100        50.863170        85.667200        59.978140         0.008926
1643124179.0000    311839.500000      -114.174600    312408.800000       125.789500    311918.600000         5.707012        59.775940       -41.069310        59.392710      -170.769600        51.734180        75.420550        59.974970        -0.005722
