Terminal: LT 500  SANTA LUZIA II - C.GRANDE III CZ6
Tensão base: 500 kV
SOC inicial: 1643124120
SOC final: 1643124179
Taxa: 1 fasores/s
Total de frames faltantes: - 

Tempo_(SOC)           VA_mod_(V)     VA_ang_(graus)     VB_mod_(V)     VB_ang_(graus)     VC_mod_(V)     VC_ang_(graus)     IA_mod_(A)     IA_ang_(graus)     IB_mod_(A)     IB_ang_(graus)     IC_mod_(A)     IC_ang_(graus)     Frequência        Delta_Freq     Faltante
1643124120.0000    307493.600000       -23.518460    308125.100000      -143.754400    306165.000000        96.302390       197.773300        61.773360       203.253700       -61.538850       195.328600       178.513700        59.975100         0.012817
1643124121.0000    307339.800000       -32.518970    308038.000000      -152.744300    306092.500000        87.297400       197.189100        52.482190       202.035600       -70.191890       194.625100       169.442800        59.972750        -0.051498
1643124122.0000    307314.900000       -41.935580    308011.000000      -162.162600    306049.500000        77.877540       196.475800        42.827800       202.926200       -79.290020       194.419800       160.285400        59.972920        -0.050125
1643124123.0000    307374.200000       -51.928400    308038.600000      -172.168400    306041.200000        67.888440       196.783200        33.557260       202.070600       -89.512660       194.107300       150.088700        59.972370         0.048752
1643124124.0000    307469.600000       -62.263440    308125.100000       177.504100    306156.000000        57.554860       197.151100        23.239020       202.004700       -99.675920       194.524900       140.354600        59.971430         0.042343
1643124125.0000    307440.500000       -72.888430    308105.400000       166.883600    306171.200000        46.929850       196.968000        12.533050       203.013200      -110.523500       195.709200       129.240900        59.971210         0.046921
1643124126.0000    307352.800000       -84.044290    308019.300000       155.716300    306042.500000        35.769180       198.259500         1.048063       202.845100      -121.603800       194.888200       118.120300        59.969560         0.027008
1643124127.0000    307267.300000       -95.593250    307970.900000       144.172700    305989.900000        24.215820       196.169200        -9.935243       202.893300      -132.577300       194.713200       106.529300        59.966000        -0.035019
1643124128.0000    307447.500000      -107.105200    308100.600000       132.666700    306165.200000        12.719310       197.068200       -21.891950       202.135200      -144.602700       194.838100        95.563430        59.970310         0.067978
1643124129.0000    307405.800000      -118.207200    308065.900000       121.557400    306090.400000         1.609944       196.597400       -32.727100       203.513600      -155.475200       194.839400        84.347320        59.969020        -0.006866
1643124130.0000    307355.900000      -129.687100    308079.700000       110.079800    306089.700000        -9.879676       196.628300       -44.221530       203.000700      -166.825300       196.104800        72.693270        59.966440        -0.036621
1643124131.0000    307277.600000      -141.204200    307998.400000        98.565590    305999.800000       -21.395440       196.694200       -55.947240       202.287700      -178.277300       194.514700        61.372190        59.966980        -0.080795
1643124132.0000    307449.900000      -153.243600    308034.200000        86.524730    306108.700000       -33.414380       197.662600       -67.650180       202.932800       169.732300       195.450900        49.125320        59.966230         0.086517
1643124133.0000    307321.200000      -166.382100    307928.900000        73.388540    306016.500000       -46.555020       197.451700       -81.169620       202.237300       156.477200       194.228000        35.823690        59.962220         0.007782
1643124134.0000    307284.900000       179.961200    307932.600000        59.736620    306007.400000       -60.218120       196.535400       -94.661020       202.244900       142.675500       194.951200        22.306640        59.962400         0.029755
1643124135.0000    307289.200000       165.832400    307911.100000        45.601150    305970.700000       -74.343440       197.055700      -108.997500       202.444500       128.308400       195.534400         8.463805        59.958960        -0.081482
1643124136.0000    307422.000000       151.216100    308047.800000        30.974980    306054.600000       -88.961850       197.690100      -123.334800       202.961300       113.846100       195.972800        -6.199841        59.959770         0.019684
1643124137.0000    307291.600000       137.392100    308008.800000        17.157270    306006.400000      -102.804100       196.337200      -136.938700       201.739400       100.188000       194.643100       -19.983040        59.961390        -0.020142
1643124138.0000    307443.500000       124.177800    308073.600000         3.944303    306116.300000      -115.994500       198.181300      -150.314400       203.349700        87.276920       196.011300       -33.116280        59.963560        -0.012817
1643124139.0000    307380.300000       111.244900    307982.400000        -8.987324    306062.400000      -128.930100       197.103300      -163.057800       201.927700        73.868260       194.338900       -46.158280        59.965450         0.065689
1643124140.0000    307303.900000        98.896030    307976.800000       -21.327950    306044.000000      -141.282900       196.728600      -175.605800       202.870000        61.745540       195.825300       -58.395000        59.965320        -0.011902
1643124141.0000    307338.000000        86.748820    308016.900000       -33.486820    306045.500000      -153.438000       197.019200       172.366100       202.602400        49.242760       195.070600       -70.812640        59.967680         0.025406
1643124142.0000    307425.100000        75.157760    308118.800000       -45.074940    306126.600000      -165.030200       196.873200       161.264200       202.412900        38.329350       194.939400       -82.101810        59.967910         0.008240
1643124143.0000    307460.600000        63.904330    308096.100000       -56.330570    306140.300000      -176.273800       197.578700       149.600700       202.590100        26.702370       195.906200       -93.260130        59.971040         0.044403
1643124144.0000    307393.300000        53.340890    308060.600000       -66.880410    306140.500000       173.163000       195.821000       138.826900       202.213600        16.254130       195.749100      -104.078200        59.971210         0.017395
1643124145.0000    307381.200000        43.448400    308048.400000       -76.785480    306067.700000       163.263200       197.255400       129.301800       203.370500         6.377052       195.746800      -113.820000        59.970690        -0.107575
1643124146.0000    307390.400000        33.800580    308059.900000       -86.432050    306088.800000       153.617400       197.318200       119.585200       202.205100        -2.916945       194.960300      -123.432100        59.972580        -0.075073
1643124147.0000    307417.200000        24.326150    308031.300000       -95.902510    306110.600000       144.155600       198.258100       110.367000       201.676200       -12.640180       195.637700      -132.318100        59.973400        -0.003204
1643124148.0000    307356.900000        14.782910    308017.000000      -105.457600    306022.800000       134.600400       195.794100       100.475600       203.097700       -22.067790       195.312600      -142.376700        59.974090         0.008926
1643124149.0000    307364.400000         5.688776    307983.000000      -114.549300    306021.000000       125.509000       196.434100        91.670360       202.248700       -31.218790       194.838600      -151.322100        59.976120        -0.000458
1643124150.0000    307425.800000        -2.922149    308027.100000      -123.154000    306088.500000       116.905600       196.775500        82.443860       201.713400       -39.983260       193.846100      -159.930700        59.975980        -0.040283
1643124151.0000    307494.800000       -10.599610    308139.500000      -130.841900    306144.100000       109.213800       196.446500        75.095570       201.953300       -47.648530       195.305500      -168.091300        59.980280         0.019913
1643124152.0000    307456.800000       -17.405850    308118.100000      -137.642100    306151.300000       102.410300       196.334200        68.024510       202.468800       -54.890050       194.662200      -174.582400        59.982830         0.047150
1643124153.0000    307455.000000       -23.896960    308111.600000      -144.122700    306190.600000        95.927150       196.320200        61.410270       202.906500       -61.039490       195.599700       178.612700        59.981980        -0.013962
1643124154.0000    307421.000000       -29.963800    308070.100000      -150.203500    306084.700000        89.853350       194.990500        55.451680       202.577700       -67.279520       194.333300       172.320100        59.984540         0.006409
1643124155.0000    307477.900000       -34.982860    308136.000000      -155.205800    306221.500000        84.842850       197.225000        50.481240       202.199500       -72.328200       195.017000       167.476700        59.987470         0.043488
1643124156.0000    307467.000000       -39.265340    308150.900000      -159.494100    306194.600000        80.553570       196.250400        46.419860       202.548500       -76.604210       194.232900       163.166000        59.989660         0.035248
1643124157.0000    307440.900000       -42.936950    308066.500000      -163.174900    306105.100000        76.882840       196.075600        42.743190       202.010600       -79.952790       194.238400       159.946400        59.990460         0.005493
1643124158.0000    307441.400000       -46.550830    308154.300000      -166.793200    306128.700000        73.254680       196.253800        38.929380       202.576900       -83.887270       194.724300       155.661700        59.990720         0.001373
1643124159.0000    307492.000000       -49.123700    308156.700000      -169.358300    306184.500000        70.688230       196.061600        36.157930       202.183500       -86.510030       193.849700       152.983500        59.994590        -0.020370
1643124160.0000    307474.300000       -50.656730    308101.800000      -170.903600    306110.300000        69.157810       196.491100        34.777750       201.733900       -88.131420       194.722900       151.912400        59.996300        -0.023117
1643124161.0000    307548.800000       -51.828140    308223.300000      -172.058200    306254.300000        67.991200       195.600300        32.773840       201.766000       -89.729710       194.271700       149.982500        59.998850         0.049667
1643124162.0000    307506.700000       -52.127250    308138.800000      -172.360300    306195.200000        67.697360       196.889900        33.057600       201.658800       -89.474530       194.781800       150.185500        59.998790        -0.043945
1643124163.0000    307486.800000       -52.151250    308096.800000      -172.382100    306171.500000        67.673500       196.455700        33.256900       201.288100       -89.543030       194.401500       149.923600        60.001380        -0.015335
1643124164.0000    307441.600000       -52.176880    308065.000000      -172.410400    306104.500000        67.646480       196.072400        32.837070       201.256800       -89.937500       195.460500       149.510900        60.000420         0.038910
1643124165.0000    307463.300000       -52.427440    308136.900000      -172.664500    306154.300000        67.389750       196.447000        32.434200       202.582700       -90.332760       194.678700       149.612300        59.998420        -0.014420
1643124166.0000    307371.700000       -52.520920    308038.200000      -172.753400    306070.200000        67.298300       196.497300        32.909280       202.182500       -90.105950       194.876100       149.707900        60.000540         0.035706
1643124167.0000    307317.900000       -53.388390    308033.700000      -173.614400    306096.800000        66.427310       195.420700        31.843270       201.162500       -91.065950       194.776500       148.583800        59.996770         0.031128
1643124168.0000    307278.600000       -55.120510    307943.500000      -175.350200    306006.400000        64.699000       195.631200        29.796030       201.360300       -93.250690       193.324000       146.496400        59.994820        -0.016479
1643124169.0000    307334.800000       -56.857620    308002.400000      -177.095400    306013.200000        62.960740       194.994100        28.151750       200.631900       -94.706620       193.973900       145.058700        59.994670         0.030212
1643124170.0000    307327.700000       -59.528300    308039.500000      -179.765900    306023.300000        60.282330       195.736500        25.067010       202.658100       -97.581370       194.465300       141.907900        59.992360        -0.009842
1643124171.0000    307373.800000       -62.571790    308026.600000       177.199100    306069.200000        57.249810       195.866700        22.635450       201.369400      -100.172200       193.014300       139.613700        59.991860         0.075073
1643124172.0000    307334.300000       -66.364920    307934.500000       173.410900    306045.200000        53.468250       197.729800        19.031650       202.119900      -103.965400       195.186800       135.775400        59.987900        -0.027924
1643124173.0000    307333.500000       -71.248340    307972.800000       168.525600    306022.200000        48.576310       196.113300        13.593970       201.062000      -109.084600       193.951000       130.970000        59.985880         0.057678
1643124174.0000    307290.600000       -76.812260    308004.800000       162.947000    305987.400000        42.996220       195.461700         8.485296       202.084800      -114.119000       194.462400       125.448600        59.982450        -0.048981
1643124175.0000    307316.200000       -83.588850    307971.900000       156.177400    306013.700000        36.226690       197.552100         1.875551       203.228200      -120.751800       193.203100       118.729700        59.979060        -0.014191
1643124176.0000    307308.200000       -91.087810    307945.700000       148.678500    305989.800000        28.735920       196.052200        -5.316545       201.941900      -128.207800       194.012200       111.308300        59.979040         0.028152
1643124177.0000    307379.200000       -99.108900    308049.400000       140.661100    306081.800000        20.710430       196.482500       -13.462180       201.400500      -136.329800       194.296500       103.412900        59.977170        -0.028152
1643124178.0000    307417.800000      -106.960900    308049.300000       132.801000    306077.400000        12.862710       196.450200       -21.286510       202.106700      -144.199300       193.898500        95.485220        59.977860         0.025406
1643124179.0000    307227.900000      -115.486100    307949.000000       124.274300    305932.600000         4.322600       196.096000       -30.038160       203.073600      -152.529300       193.862100        86.883940        59.975320         0.065689
