Terminal: LT 500  P. JUSCELINO - JANAUBA 3 C2
Tensão base: 500 kV
SOC inicial: 1643124120
SOC final: 1643124179
Taxa: 1 fasores/s
Total de frames faltantes: - 

Tempo_(SOC)           VA_mod_(V)     VA_ang_(graus)     VB_mod_(V)     VB_ang_(graus)     VC_mod_(V)     VC_ang_(graus)     IA_mod_(A)     IA_ang_(graus)     IB_mod_(A)     IB_ang_(graus)     IC_mod_(A)     IC_ang_(graus)     Frequência        Delta_Freq     Faltante
1643124120.0000    311644.800000       -42.442960    311644.300000      -161.927700    310666.600000        78.445440       162.678100        98.178810       173.743400       -19.399480       174.963100      -138.530100        59.974440        -0.024948
1643124121.0000    311619.100000       -51.486950    311652.600000      -170.960000    310693.500000        69.404060       162.741000        89.183850       174.278400       -28.254560       175.419200      -147.293700        59.973460        -0.022659
1643124122.0000    311553.800000       -60.941640    311612.600000       179.578900    310614.700000        59.943440       163.300100        79.744980       174.089500       -37.573640       175.537100      -156.774600        59.973840         0.070953
1643124123.0000    311519.100000       -70.928770    311551.000000       169.589600    310580.600000        49.958860       162.927500        69.694340       174.158700       -47.781360       175.796800      -166.734400        59.972430         0.024261
1643124124.0000    311609.700000       -81.254780    311646.600000       159.265000    310672.200000        39.634850       162.209700        59.307870       173.544500       -58.042580       175.335900      -177.090000        59.971180         0.006180
1643124125.0000    311482.900000       -91.886480    311557.700000       148.640700    310569.300000        28.997740       162.727800        48.633890       174.169600       -68.699400       175.340700       172.321500        59.969360        -0.006638
1643124126.0000    311534.900000      -103.035300    311562.600000       137.480300    310566.900000        17.851500       162.543800        37.646920       173.964600       -79.675450       175.609000       161.152400        59.968120         0.001831
1643124127.0000    311539.900000      -114.613500    311585.400000       125.906600    310589.100000         6.272113       162.679800        25.963730       173.839600       -91.435080       175.209200       149.416400        59.966910        -0.014420
1643124128.0000    311657.400000      -125.991400    311703.800000       114.531000    310724.100000        -5.102484       162.356600        14.417370       173.701600      -102.867300       175.249600       138.172600        59.970550         0.079880
1643124129.0000    311467.800000      -137.187000    311495.500000       103.328000    310480.500000       -16.299880       162.552800         3.276201       174.630100      -113.908000       175.666700       126.850700        59.968330        -0.002518
1643124130.0000    311505.800000      -148.676100    311540.500000        91.843350    310518.000000       -27.788360       162.833800        -8.126507       173.939300      -125.642700       175.764100       115.228600        59.967450        -0.004807
1643124131.0000    311405.600000      -160.161200    311460.600000        80.353770    310428.500000       -39.278850       162.967400       -19.802810       173.787700      -136.932100       175.390300       103.812900        59.966150        -0.078506
1643124132.0000    311343.100000      -172.263500    311371.100000        68.255610    310370.100000       -51.370160       163.263400       -31.743180       174.518900      -149.112700       176.395800        91.804680        59.965730        -0.006180
1643124133.0000    311404.200000       174.635100    311418.100000        55.141760    310371.800000       -64.480530       163.210700       -44.877270       174.719600      -162.121200       175.996500        78.548930        59.962840         0.018082
1643124134.0000    311481.200000       161.007000    311488.300000        41.515190    310445.800000       -78.106070       162.589400       -58.463440       173.990200      -175.752900       175.641400        65.076720        59.961770        -0.005035
1643124135.0000    311387.000000       146.836900    311408.200000        27.347430    310351.500000       -92.276600       163.333400       -72.632400       174.402700       170.090900       176.171600        50.885150        59.959580        -0.009613
1643124136.0000    311502.500000       132.497000    311537.200000        13.011790    310517.100000      -106.616900       162.531000       -87.066010       173.699500       155.735700       175.356200        36.600850        59.958960        -0.039825          *
1643124137.0000    311438.300000       118.353800    311455.500000        -1.131174    310461.200000      -120.757100       163.890500      -101.107900       174.933900       141.621200       176.564400        22.487780        59.962190         0.031357
1643124138.0000    311323.400000       105.088300    311378.000000       -14.395930    310367.800000      -134.027400       164.860400      -114.245000       175.081600       128.435500       176.350600         9.297328        59.963380         0.013504
1643124139.0000    311415.900000        92.210520    311485.000000       -27.266420    310488.900000      -146.900800       163.419500      -127.220100       174.929300       115.646700       176.319200        -3.553339        59.965670         0.082169
1643124140.0000    311320.800000        79.771750    311363.500000       -39.705090    310384.300000      -159.339100       164.604100      -139.461100       175.376200       103.196300       176.852700       -15.932460        59.965100        -0.010529
1643124141.0000    311349.200000        67.671460    311363.300000       -51.809310    310383.800000      -171.439700       163.981300      -151.745900       174.815000        90.913150       176.751400       -28.198900        59.966340         0.020142
1643124142.0000    311304.300000        56.009040    311336.200000       -63.465050    310373.700000       176.901300       164.254900      -163.051000       175.422800        79.401560       177.073800       -39.731330        59.967520        -0.034103
1643124143.0000    311368.100000        44.806200    311406.900000       -74.672640    310396.800000       165.695700       163.990500      -174.672900       174.965300        68.101920       176.428200       -50.917080        59.970590         0.030899
1643124144.0000    311365.800000        34.251080    311411.300000       -85.219230    310450.500000       155.147400       163.612800       175.035300       175.108500        57.508900       176.223500       -61.605810        59.971540        -0.010757
1643124145.0000    311277.600000        24.286760    311284.600000       -95.194500    310298.800000       145.178200       164.517700       164.998800       175.230100        47.679510       176.438700       -71.447350        59.969350        -0.145798
1643124146.0000    311303.300000        14.611960    311331.800000      -104.868000    310340.800000       135.500200       164.090500       155.410000       175.590000        38.006890       177.054700       -81.007230        59.972310        -0.043716
1643124147.0000    311263.400000         5.133369    311386.000000      -114.359200    310278.100000       126.005500       164.466700       145.742400       175.253200        28.577030       177.483500       -90.431730        59.974840         0.070038
1643124148.0000    311316.800000        -4.378152    311457.700000      -123.872300    310329.200000       116.489800       163.618300       136.160500       175.303700        19.045450       177.231100      -100.078000        59.975400         0.065918
1643124149.0000    311381.800000       -13.454500    311482.400000      -132.950300    310380.800000       107.416000       163.892500       127.313400       175.117300         9.928046       176.953200      -108.992400        59.976020         0.048065
1643124150.0000    311477.700000       -22.025400    311578.100000      -141.519200    310473.100000        98.847790       163.408400       118.786800       175.009300         1.488621       176.421100      -117.656000        59.976890         0.011215
1643124151.0000    311519.600000       -29.631610    311618.300000      -149.129400    310502.700000        91.237820       163.216600       110.961000       174.494900        -6.282281       176.252300      -125.414500        59.979970         0.021973
1643124152.0000    311407.800000       -36.480280    311482.200000      -155.978100    310361.900000        84.398830       163.569800       104.038000       174.867200       -13.324500       176.303500      -132.562300        59.981480        -0.005264
1643124153.0000    311517.600000       -42.955080    311577.100000      -162.454100    310482.800000        77.921130       163.588600        97.623410       174.670300       -19.701360       176.079900      -138.794500        59.982250         0.013275
1643124154.0000    311664.000000       -49.010910    311730.000000      -168.512600    310617.800000        71.865340       163.027600        91.539160       174.023500       -25.732010       175.811600      -144.717700        59.985470         0.056763
1643124155.0000    311683.100000       -54.033520    311727.400000      -173.530800    310637.800000        66.845530       163.389700        86.520250       174.045200       -30.718600       176.015100      -149.886400        59.987890         0.064316
1643124156.0000    311607.100000       -58.337640    311689.300000      -177.835500    310586.100000        62.535570       163.476200        82.433800       174.903500       -34.954480       176.296000      -154.056000        59.988970        -0.028152
1643124157.0000    311553.400000       -62.081300    311600.300000       178.426700    310529.800000        58.801450       163.792000        78.614190       174.595200       -38.618080       176.854600      -157.881000        59.988850        -0.050125
1643124158.0000    311695.800000       -65.597290    311758.800000       174.909500    310682.000000        55.283560       163.530200        74.831080       174.381000       -42.216980       176.278400      -161.359300        59.992080        -0.004120
1643124159.0000    311735.600000       -68.095260    311788.200000       172.412300    310716.500000        52.784350       162.851300        72.536250       174.049600       -44.787900       175.594600      -163.934700        59.993050        -0.029068
1643124160.0000    311717.500000       -69.709030    311697.000000       170.787600    310619.900000        51.174470       163.627800        70.849490       174.935300       -46.484430       176.309500      -165.438800        59.996520        -0.016937
1643124161.0000    311825.300000       -70.784760    311807.300000       169.714000    310752.300000        50.101110       163.141700        69.963260       174.639300       -47.519800       176.189700      -166.609400        59.997890         0.031586
1643124162.0000    311803.400000       -71.207950    311790.800000       169.285100    310700.300000        49.674320       163.504600        69.790820       175.018200       -47.590490       176.832700      -166.820600        59.998130        -0.072098
1643124163.0000    311744.100000       -71.195150    311764.000000       169.299600    310653.900000        49.688180       163.674000        69.508270       175.165600       -47.719300       176.372700      -166.903400        59.999560        -0.057220
1643124164.0000    311743.400000       -71.216180    311773.600000       169.282100    310665.500000        49.662950       163.926600        69.373000       174.753100       -47.875270       176.473300      -166.962900        60.000230         0.011902
1643124165.0000    311794.000000       -71.411420    311882.000000       169.088300    310747.000000        49.461720       163.212800        68.995990       174.589600       -48.245910       176.235200      -167.279800        60.003090         0.262756
1643124166.0000    311602.400000       -71.583350    311703.300000       168.935200    310637.800000        49.299190       163.735800        68.972030       174.993200       -48.252320       176.175000      -167.357700        60.003740         0.174408
1643124167.0000    311655.800000       -72.479130    311630.600000       168.036600    310651.200000        48.414880       163.848600        68.332210       175.216600       -49.145450       176.542600      -168.144000        59.996640        -0.010529
1643124168.0000    311765.600000       -74.069230    311776.600000       166.454900    310808.300000        46.827880       163.265700        66.447110       174.179600       -50.780610       175.592900      -169.914400        59.996230         0.047150
1643124169.0000    311692.500000       -75.869290    311658.800000       164.653900    310699.900000        45.033250       163.491800        64.802380       175.108200       -52.555270       176.065900      -171.810600        59.993860        -0.014877
1643124170.0000    311724.900000       -78.499690    311672.100000       162.025100    310757.000000        42.408660       162.901400        62.128470       174.757200       -55.188310       175.736100      -174.370000        59.990390        -0.075531
1643124171.0000    311687.300000       -81.597560    311690.900000       158.928400    310717.400000        39.305550       163.520100        59.152850       174.664400       -58.230480       176.241200      -177.362800        59.991880         0.046005
1643124172.0000    311643.500000       -85.473360    311602.000000       155.054000    310665.600000        35.435360       163.813900        55.273460       174.956500       -62.087340       176.184400       178.914100        59.987660        -0.012589
1643124173.0000    311690.400000       -90.277730    311664.500000       150.248900    310709.800000        30.623150       163.765600        50.163510       174.577300       -67.247700       176.163900       173.904700        59.986360         0.045776
1643124174.0000    311516.900000       -95.915150    311502.000000       144.609100    310554.800000        24.980760       164.181700        44.698110       174.785300       -72.767180       176.200300       168.256900        59.981560        -0.099792
1643124175.0000    311640.900000      -102.659900    311601.900000       137.863000    310639.300000        18.240770       163.565400        37.752490       174.320600       -79.650290       175.422600       161.254900        59.981230         0.081482
1643124176.0000    311658.700000      -110.163600    311620.300000       130.359300    310671.000000        10.735380       163.107200        30.339900       174.659500       -86.978340       175.768300       153.886200        59.979370         0.022430
1643124177.0000    311711.700000      -118.155400    311730.800000       122.371700    310774.300000         2.744410       163.442600        22.207580       174.387800       -94.943520       175.312300       145.894000        59.978650         0.053329
1643124178.0000    311699.800000      -126.026600    311682.600000       114.496900    310720.700000        -5.128977       162.838100        14.438970       173.829200      -102.814200       175.398800       138.029200        59.978240         0.045547
1643124179.0000    311587.900000      -134.636500    311588.300000       105.891200    310628.200000       -13.737270       163.403500         6.072309       174.600200      -111.310700       176.125600       129.482400        59.974060        -0.018768
