Terminal: LT 500  BACABEIRA - PARNAIBA III C1
Tensão base: 500 kV
SOC inicial: 1643124120
SOC final: 1643124179
Taxa: 1 fasores/s
Total de frames faltantes: - 

Tempo_(SOC)           VA_mod_(V)     VA_ang_(graus)     VB_mod_(V)     VB_ang_(graus)     VC_mod_(V)     VC_ang_(graus)     IA_mod_(A)     IA_ang_(graus)     IB_mod_(A)     IB_ang_(graus)     IC_mod_(A)     IC_ang_(graus)     Frequência        Delta_Freq     Faltante
1643124120.0000       884.576900       176.070500       908.818400      -133.377400      1000.819000      -116.448500         0.456900       -57.149620         0.466739       -14.059860         0.394958       165.029800        59.902410        -1.011887
1643124121.0000       881.575900       167.050000       902.515800      -142.691600       992.694500      -125.683500         0.936761        91.771740         0.411256       -19.099430         0.432003      -159.271700        59.858390        -2.048950
1643124122.0000       882.300800       157.973300       907.347600      -151.458600       992.710600      -135.724600         0.543530        49.458120         0.386070      -109.710400         0.369333       158.828400        60.043140         0.748444
1643124123.0000       885.628100       147.361500       898.604900      -161.344400       992.304500      -145.240400         0.208068      -171.972200         0.649637       -58.614390         0.222857      -177.370500        60.027850         2.972031
1643124124.0000       876.855500       136.688200       904.770100      -172.260300       989.068900      -154.927200         0.705542        61.995230         0.958403      -135.116600         0.651391       111.179400        59.934950        -1.762848
1643124125.0000       875.344700       127.102000       906.047300       177.491300       995.688800      -166.159300         1.174483       132.705000         0.307321      -176.241900         0.411784       -70.511250        60.020810         2.585907
1643124126.0000       886.203300       116.071200       897.286900       166.376100       996.909100      -177.200400         0.711530        47.262690         0.600822      -123.393500         0.831391        70.529590        59.936730        -6.449203
1643124127.0000       879.976100       102.726200       897.005100       154.620300       992.132800       171.564100         0.524211      -103.122100         0.293912       166.626300         0.073389        76.996520        59.937180         1.145554
1643124128.0000       864.778300        93.418230       906.332800       143.300500      1006.445000       159.544600         1.029649       -58.467930         0.659033      -116.896400         0.410024       124.642400        59.977950         1.689606
1643124129.0000       888.512800        82.212980       911.740600       131.756700       997.279300       148.660900         0.621509       -33.398270         0.468445      -138.901000         0.096405       143.053500        59.857950        -4.256516
1643124130.0000       880.166300        70.256410       898.282200       120.404900       995.851400       136.942900         1.151151         0.166595         0.409705      -134.224100         0.335004        75.629800        59.895120        -0.402603
1643124131.0000       887.332600        57.567680       912.006100       108.552700       988.877100       125.995100         0.296376        14.350650         1.019034       173.603700         0.343834      -176.287200        60.007240         4.740143
1643124132.0000       885.019200        45.594350       899.961700        97.128030       990.425100       113.106900         0.093223      -158.241100         0.355553        58.532870         0.019106      -173.708500        59.894470        -3.961258
1643124133.0000       881.774500        32.939070       898.870100        83.262690       987.564800       100.298200         0.814180       -48.509230         0.394015       156.399100         0.390646       151.479400        60.000350         2.135468
1643124134.0000       879.064100        19.491200       901.131900        69.632370       991.007200        86.678380         0.872457      -150.634400         1.037276       160.506700         0.243125       -13.137040        59.855960        -6.826859
1643124135.0000       883.967200         5.901116       916.940900        56.956550       994.989900        73.605350         0.383566      -162.488400         0.923539       141.858900         0.661282       -20.174070        59.907420        -5.877686
1643124136.0000       875.644800        -9.244569       909.424900        41.836500       986.118000        58.082780         0.388057       158.813500         0.889440       133.669300         0.328127       -51.416470        59.990450         4.190598
1643124137.0000       875.461900       -24.405190       899.722000        27.229680       994.398300        43.762400         0.269031       160.728000         0.106061      -117.225000         0.055164         8.012233        59.931820        -2.122650
1643124138.0000       892.185700       -36.315030       901.298200        14.318120       995.155000        31.222760         0.133494       -74.681820         0.586171       121.946500         0.422199       -21.149000        59.930540         2.521362
1643124139.0000       863.522700       -49.353550       901.803200         2.031432       995.251300        18.461020         0.333184      -141.060600         0.465057       118.149400         0.528039       -21.595480        59.995240         1.224747
1643124140.0000       886.421600       -61.555950       902.890800       -10.437840       986.567000         6.195350         0.256288        84.438800         0.412345        49.434570         0.374143       -15.432040        59.921080        -3.372803
1643124141.0000       885.190500       -74.104260       902.529100       -23.291780       996.084500        -6.404314         0.832678      -113.681000         0.653761        32.167620         0.304076      -127.551900        59.857170        -3.979340
1643124142.0000       870.155300       -85.627490       911.515900       -34.301620       996.139700       -17.697620         1.074659      -157.215200         0.195891      -146.206800         0.472403       -41.002730        59.938980        -2.724152
1643124143.0000       884.765200       -97.160210       899.496900       -46.228140       997.868800       -29.323000         0.857596      -177.416700         0.456330        90.944630         0.495062       -48.304200        59.909980        -1.170731
1643124144.0000       881.182900      -107.929200       898.594800       -56.738660       996.623900       -39.805930         0.627651      -101.150300         0.770569       -15.717860         0.815570      -167.330000        59.892480        -6.378250
1643124145.0000       876.485700      -116.936900       907.797200       -66.407830       998.447800       -49.822070         0.499827      -178.578000         1.116823        72.041910         0.590942      -123.075800        60.010070        -0.490952
1643124146.0000       875.782000      -126.404800       903.225500       -76.267500       986.126000       -59.670260         0.057741        46.847350         0.249232      -164.854700         0.521337      -136.381900        59.897420         0.005493
1643124147.0000       878.216200      -135.665100       899.236800       -85.042040       999.947900       -68.695980         0.613516        33.282840         0.591240       -20.490290         0.239230      -141.226000        59.944830        -2.252655
1643124148.0000       877.036000      -145.784600       903.162000       -94.859490       993.615900       -78.204900         0.628857        40.051170         0.711313       -14.845530         0.159138       167.220000        59.852990        -5.379181
1643124149.0000       870.044100      -154.430100       893.464200      -103.644300       992.421100       -87.250370         0.243341       166.452100         0.768071        -0.474273         0.548036       -82.141590        59.936450        -2.406006
1643124150.0000       867.910300      -163.933300       910.448400      -112.605700       986.794400       -96.094730         1.043054      -155.887200         0.682182        32.106320         0.435554      -151.989900        59.947730         1.402359
1643124151.0000       889.282000      -170.783500       900.288500      -120.353700       994.621200      -103.559300         0.765983        50.443200         0.558937       -81.488650         0.295812       123.533200        59.933930        -5.139542
1643124152.0000       887.032100      -178.254400       904.079300      -127.671600       989.420500      -110.167000         0.138964        47.768820         0.200439       -16.474000         0.611855       145.304500        60.013690         2.475128
1643124153.0000       877.442000       175.530600       920.518100      -134.408300       999.860000      -116.780900         0.652390        38.171220         0.534688         7.134120         0.310737       127.200000        59.886760         0.518646
1643124154.0000       877.743900       169.681400       902.749500      -139.172400       990.760100      -122.752100         0.600415       153.601100         0.299867        -0.285308         0.535381      -173.082700        59.941890        -5.426102
1643124155.0000       877.242900       163.897600       908.772300      -145.376600      1005.277000      -129.063500         0.610159       126.666600         0.886382      -129.666500         0.174892       129.280200        60.059710         7.177734
1643124156.0000       863.397200       159.715300       904.927100      -149.565700       994.713800      -132.243200         1.049336        -2.849643         0.623628       -67.173500         0.235481       136.610200        60.003470         6.164932
1643124157.0000       885.551100       156.716300       905.849700      -153.108600       995.895000      -136.674500         0.250851      -136.482300         0.760091       -45.231250         0.268187      -171.093500        59.925540        -1.418152
1643124158.0000       888.761200       153.139200       904.168200      -156.540000       989.472600      -139.434000         0.946344        40.838740         0.327124       176.242200         0.262645      -136.069200        60.034770         6.589279
1643124159.0000       884.419300       150.732600       913.129800      -159.362800       991.552200      -142.763500         0.831584        29.951680         0.294115         7.589631         0.354602       158.717500        60.056310         4.578323
1643124160.0000       881.079400       149.956800       902.119800      -160.517700       988.432800      -144.305100         0.585918        -1.093580         0.350464       -37.300130         0.450794        71.702010        59.922530        -3.880920
1643124161.0000       884.112200       147.373100       903.672200      -162.225800       993.910800      -144.527800         0.357212      -178.729400         0.726184       -62.676070         0.071555      -121.840000        60.021520         1.435089
1643124162.0000       880.236700       147.894800       916.794800      -162.308300       996.644800      -145.497800         0.903729        66.420680         1.091272      -109.872200         0.173998       116.008300        60.000810         4.985962
1643124163.0000       872.222800       147.635700       917.232900      -162.515200      1004.286000      -144.989500         0.462970      -165.795300         0.388870       -84.674350         0.094022        88.066670        60.019570         4.451752
1643124164.0000       881.121900       146.871300       894.422500      -162.061300       990.993300      -145.060800         0.623197       -54.715950         0.410329      -113.894100         0.276077       -75.855810        60.009610        -1.442413
1643124165.0000       873.965600       147.795800       905.719800      -162.083700      1008.641000      -146.040400         0.884853        41.717490         0.551965       -57.715170         0.260364       175.676600        60.050750         4.461823
1643124166.0000       887.861300       146.745900       899.973200      -162.208900       999.375000      -145.744300         0.119143       -22.392080         0.621326       -44.739410         0.529400       154.524600        60.027280         1.278992
1643124167.0000       884.020600       145.823300       910.694000      -163.413800       995.126800      -146.183100         0.788142        33.637130         0.519448       -94.165970         0.362371       171.572100        59.970190        -3.928299
1643124168.0000       867.459600       144.647300       898.917500      -164.445700       996.764600      -148.525100         0.332197        76.690700         0.454986       -43.934850         0.623318       136.330600        60.044740        -0.325699
1643124169.0000       878.036400       142.165300       897.021500      -166.878900       995.771900      -149.682600         0.778062      -168.960600         0.143364      -116.200700         0.085120       160.368300        59.956100        -1.002045
1643124170.0000       877.559300       140.168000       908.233400      -169.359600       994.290300      -151.969900         1.208986        48.430080         0.285418        23.049510         0.563019       166.591700        59.865340        -6.604614
1643124171.0000       885.911400       136.426400       910.707600      -172.196500       982.988200      -156.122600         0.792865        67.358600         0.247932        27.121190         0.293933      -117.951400        60.047590         1.538315
1643124172.0000       893.807200       133.099400       912.612500      -176.552700       985.919600      -159.085800         0.684163        25.143120         0.393404       134.950500         0.549728       112.531300        60.055860         6.299744
1643124173.0000       883.294900       128.585400       905.953900       178.596500       996.541000      -164.664900         0.455848        12.859660         0.801484       -99.255130         0.492486        14.197150        59.977560         2.249908
1643124174.0000       877.477600       122.982800       903.056100       173.479800       984.561300      -170.156600         0.230764        41.460670         0.089646      -170.140900         0.135881        36.003310        59.887270        -4.817505
1643124175.0000       877.622100       115.899500       891.857500       166.490600       993.950000      -176.606100         0.498051       -42.010800         0.818591      -131.515600         0.466529       109.206800        59.910420        -2.382202
1643124176.0000       876.890700       108.335300       909.553600       158.482400       993.124500       175.363500         0.347701      -125.057400         0.566602        25.452630         0.438497      -151.921900        59.917410         2.149429
1643124177.0000       879.078200       100.700600       909.095300       150.910800       996.983300       167.861100         0.134063       -61.234550         0.538272      -117.147600         0.277593       124.971200        60.010490         3.918228
1643124178.0000       868.907300        92.687060       906.101900       143.330800       986.476100       159.310200         0.250236       -45.498250         0.798150      -115.330000         0.517342       148.265400        60.013510         6.278687
1643124179.0000       879.368400        83.769430       903.419300       134.869300       991.198600       151.387700         0.641961      -170.769800         0.624249       178.478300         0.320490        22.736750        59.911730        -2.523422
