Terminal: LT 525  CURIT.LESTE - BLUMENAU C1
Tensão base: 525 kV
SOC inicial: 1643124120
SOC final: 1643124179
Taxa: 1 fasores/s
Total de frames faltantes: - 

Tempo_(SOC)           VA_mod_(V)     VA_ang_(graus)     VB_mod_(V)     VB_ang_(graus)     VC_mod_(V)     VC_ang_(graus)     IA_mod_(A)     IA_ang_(graus)     IB_mod_(A)     IB_ang_(graus)     IC_mod_(A)     IC_ang_(graus)     Frequência        Delta_Freq     Faltante
1643124120.0000    306925.100000      -123.998300    309174.800000       116.069600    308475.800000        -4.252387      1762.997000      -110.843000      1818.370000       128.264200      1772.603000         7.446015        59.974290        -0.035706
1643124121.0000    306977.800000      -133.119500    309397.900000       107.028500    308984.600000       -13.360610      1763.239000      -119.987000      1824.822000       118.997200      1773.163000        -1.956244        59.974800        -0.020370
1643124122.0000    306941.600000      -142.575100    309299.900000        97.566750    308864.900000       -22.809590      1762.503000      -129.414300      1823.293000       109.638100      1773.899000       -11.345190        59.974280         0.024490
1643124123.0000    307019.800000      -152.503200    309436.200000        87.648760    309036.800000       -32.743800      1760.963000      -139.380100      1820.853000        99.661730      1771.205000       -21.255830        59.975580         0.114441
1643124124.0000    307159.600000      -162.682800    309407.800000        77.463110    309046.900000       -42.899150      1759.138000      -149.595900      1820.322000        89.488060      1771.534000       -31.479820        59.971040         0.000458
1643124125.0000    306837.000000      -173.405300    309159.900000        66.669260    308438.800000       -53.669320      1762.051000      -160.230300      1818.639000        78.825720      1771.041000       -42.002520        59.970490        -0.001373
1643124126.0000    306874.600000       175.362500    309314.200000        55.453270    308587.800000       -64.908620      1761.667000      -171.456500      1818.655000        67.554660      1770.562000       -53.245140        59.968590         0.016479
1643124127.0000    306790.500000       163.704100    308983.200000        43.885210    308829.300000       -76.482460      1761.492000       176.919700      1825.153000        55.996140      1775.260000       -65.021040        59.968510         0.053558
1643124128.0000    306891.800000       152.567300    309190.900000        32.672810    308634.500000       -87.675000      1760.289000       165.740700      1818.932000        44.811320      1771.517000       -76.072950        59.967550         0.046234
1643124129.0000    306856.400000       141.035300    309229.800000        21.117880    308509.400000       -99.233190      1767.125000       154.194300      1823.373000        33.185100      1775.349000       -87.634220        59.968110         0.026093
1643124130.0000    307237.500000       129.747800    309547.700000         9.902369    309194.300000      -110.473000      1760.297000       142.786500      1821.794000        21.852410      1772.282000       -99.120980        59.971420         0.120850
1643124131.0000    306635.300000       118.107700    309076.300000        -1.804216    308375.900000      -122.166900      1765.110000       131.354600      1822.373000        10.290390      1771.913000      -110.499000        59.969230         0.079651
1643124132.0000    306716.200000       105.813100    309057.900000       -14.130320    308251.400000      -134.462200      1765.608000       119.003500      1820.128000        -1.966170      1774.052000      -122.763200        59.965520        -0.041656
1643124133.0000    306537.600000        92.871630    309189.400000       -27.014420    308466.500000      -147.427000      1765.862000       106.175900      1823.570000       -14.918900      1772.426000      -135.757800        59.960730        -0.193176
1643124134.0000    306703.800000        79.339820    309026.900000       -40.588890    308286.100000      -160.923800      1764.800000        92.582920      1821.859000       -28.433670      1773.169000      -149.248000        59.960330        -0.071640
1643124135.0000    307007.500000        65.067850    309341.400000       -54.828870    308744.900000      -175.182300      1763.675000        78.193150      1821.330000       -42.822070      1772.772000      -163.665200        59.959670        -0.021286
1643124136.0000    306960.200000        50.588180    309308.400000       -69.271750    308862.600000       170.355100      1764.255000        63.676280      1825.676000       -57.281510      1775.861000      -178.218000        59.958640        -0.067978
1643124137.0000    306771.800000        36.487190    308943.500000       -83.387840    308534.800000       156.275200      1762.028000        49.708740      1821.468000       -71.175940      1773.813000       167.890000        59.965980         0.197983
1643124138.0000    307085.700000        23.071620    309342.800000       -96.761220    309100.900000       142.864000      1763.276000        36.116120      1826.262000       -84.806380      1776.446000       154.179300        59.962170        -0.143280
1643124139.0000    306656.800000        10.319790    309056.200000      -109.602500    308324.800000       130.046000      1764.668000        23.483160      1822.022000       -97.495220      1773.666000       141.693200        59.964600         0.019913
1643124140.0000    306927.000000        -2.267095    309319.100000      -122.132800    308842.100000       117.487600      1762.967000        10.841690      1823.020000      -110.139400      1773.277000       128.918000        59.965880         0.029755
1643124141.0000    306537.800000       -14.345110    308754.800000      -134.229400    308257.000000       105.430800      1763.964000        -1.081551      1823.500000      -121.992600      1775.600000       117.096400        59.968270         0.097733
1643124142.0000    306617.300000       -26.052690    309019.800000      -145.980800    308236.200000        93.667020      1768.663000       -12.906910      1823.964000      -133.899900      1775.828000       105.326100        59.967190         0.012589
1643124143.0000    306865.800000       -37.231590    309315.400000      -157.096800    308804.200000        82.514030      1764.301000       -24.140190      1823.916000      -145.111200      1773.637000        93.984220        59.968490         0.029755
1643124144.0000    307030.000000       -47.694600    309376.000000      -167.561600    308906.000000        72.069110      1764.358000       -34.604010      1823.631000      -155.587900      1773.499000        83.503220        59.970920        -0.013275
1643124145.0000    306687.300000       -57.891240    308992.200000      -177.724600    308704.900000        61.892920      1764.176000       -44.691290      1826.791000      -165.625900      1776.026000        73.371740        59.972560         0.006638
1643124146.0000    306644.100000       -67.559170    308886.900000       172.588600    308550.300000        52.224840      1763.549000       -54.349670      1823.398000      -175.253200      1775.479000        63.746040        59.976390         0.142136
1643124147.0000    306833.400000       -77.088000    309154.200000       163.028900    308638.800000        42.671750      1763.185000       -63.934250      1822.154000       175.102500      1773.883000        54.189420        59.973040        -0.060196
1643124148.0000    306703.600000       -86.476910    308958.500000       153.630200    308442.200000        33.287100      1760.950000       -73.228580      1819.685000       165.888800      1773.135000        44.945760        59.971500        -0.195694
1643124149.0000    306743.300000       -95.521020    308998.800000       144.577500    308424.800000        24.236280      1762.822000       -82.287480      1820.496000       156.765700      1772.697000        35.898860        59.976540         0.015106
1643124150.0000    306858.500000      -104.054400    309010.800000       136.041400    308466.400000        15.722060      1766.820000       -90.949730      1825.202000       148.200600      1778.337000        27.292520        59.977890         0.152206
1643124151.0000    306819.500000      -111.587000    309166.200000       128.549300    308722.700000         8.176295      1767.900000       -98.520450      1827.686000       140.513200      1778.207000        19.582210        59.980740         0.063858
1643124152.0000    307029.200000      -118.524500    309373.600000       121.610400    308910.400000         1.240789      1765.933000      -105.483300      1824.994000       133.578900      1776.143000        12.662410        59.982120        -0.058365
1643124153.0000    306838.900000      -124.961200    309344.900000       115.150500    308735.400000        -5.228271      1765.342000      -111.807500      1825.904000       127.152900      1774.269000         6.286720        59.984740         0.080566
1643124154.0000    306694.200000      -130.804800    309012.200000       109.266100    308289.800000       -11.064510      1764.343000      -117.606300      1820.938000       121.440800      1773.661000         0.627383        59.987750         0.078278
1643124155.0000    306910.700000      -135.909300    309280.100000       104.203200    308706.900000       -16.159990      1768.058000      -122.875000      1827.467000       116.171500      1778.566000        -4.721331        59.986950         0.008469
1643124156.0000    306911.600000      -140.032200    309416.500000       100.105700    308894.100000       -20.291100      1764.016000      -126.974100      1824.093000       112.013600      1772.924000        -8.887593        59.988140        -0.022888
1643124157.0000    306970.000000      -143.977800    309405.600000        96.149880    308874.100000       -24.229360      1766.156000      -130.941900      1825.563000       108.062900      1775.454000       -12.855150        59.991840         0.087204
1643124158.0000    306860.800000      -147.422700    309254.000000        92.709280    308745.200000       -27.666810      1766.155000      -134.367800      1826.310000       104.694500      1776.990000       -16.221120        59.991500        -0.008469
1643124159.0000    306412.600000      -149.851200    308738.000000        90.309900    308416.100000       -30.070180      1766.215000      -136.584600      1828.527000       102.468300      1778.057000       -18.529620        59.992450        -0.072098
1643124160.0000    306806.200000      -151.606200    309211.800000        88.500340    308571.800000       -31.866570      1768.447000      -138.548800      1826.536000       100.429000      1777.567000       -20.407420        59.995580        -0.078506
1643124161.0000    306712.300000      -152.540200    309072.800000        87.577640    308534.000000       -32.786790      1765.256000      -139.429000      1824.295000        99.594930      1775.860000       -21.305410        59.997140        -0.044632
1643124162.0000    306432.300000      -153.092300    308895.300000        86.991230    308157.000000       -33.373470      1771.457000      -139.944200      1828.165000        99.045150      1778.948000       -21.770530        59.996130        -0.228424
1643124163.0000    306385.100000      -153.231100    308547.500000        86.857640    307956.100000       -33.463150      1770.103000      -140.038000      1826.926000        99.051390      1780.524000       -21.793880        59.998020        -0.016251
1643124164.0000    306345.700000      -153.167500    308948.100000        86.907940    308111.800000       -33.473360      1770.298000      -139.952000      1826.577000        98.960010      1776.364000       -21.821290        60.001420        -0.017166
1643124165.0000    306359.800000      -153.193900    308959.200000        86.940170    308393.000000       -33.470330      1766.197000      -139.941900      1828.043000        98.979810      1774.664000       -21.925830        59.999670         0.032730
1643124166.0000    306410.300000      -153.660000    308644.500000        86.501810    308367.600000       -33.862170      1765.369000      -140.444000      1828.730000        98.587830      1778.665000       -22.411180        59.997780         0.003891
1643124167.0000    306246.700000      -154.605100    308859.100000        85.503810    308169.700000       -34.897170      1767.739000      -141.339400      1827.591000        97.579880      1775.553000       -23.310510        59.998540         0.086060
1643124168.0000    306310.200000      -155.707100    309073.400000        84.388060    308236.200000       -36.035870      1766.799000      -142.507000      1826.149000        96.355190      1771.627000       -24.462580        59.995650        -0.064316
1643124169.0000    306212.200000      -157.741400    308680.500000        82.417970    308279.800000       -37.984900      1768.596000      -144.565100      1829.713000        94.453410      1778.752000       -26.500260        59.993030        -0.006180
1643124170.0000    306662.800000      -160.225100    308927.800000        79.900720    308479.700000       -40.453600      1766.380000      -147.206600      1827.191000        91.858010      1777.794000       -29.075410        59.993260         0.134811
1643124171.0000    306498.900000      -163.459500    308913.300000        76.641770    308280.600000       -43.723040      1767.860000      -150.432900      1826.702000        88.604940      1777.821000       -32.254800        59.990180         0.018311
1643124172.0000    306506.200000      -167.425200    308738.200000        72.687160    308222.600000       -47.656490      1769.746000      -154.422500      1829.235000        84.631030      1780.038000       -36.283840        59.991180         0.156097
1643124173.0000    306466.500000      -172.170700    308815.300000        67.937820    308199.100000       -52.419210      1766.916000      -159.118900      1826.135000        79.886170      1777.515000       -40.956250        59.986710        -0.024719
1643124174.0000    306379.300000      -178.101500    308648.100000        61.985540    308015.700000       -58.350160      1769.958000      -165.134500      1828.290000        73.989130      1781.378000       -46.902250        59.982990         0.016708
1643124175.0000    306396.300000       175.289200    308783.900000        55.430050    308347.200000       -64.949330      1768.360000      -171.671500      1829.019000        67.382590      1778.336000       -53.565590        59.978910        -0.087204
1643124176.0000    306330.500000       167.795000    308639.500000        47.945780    308276.000000       -72.426950      1764.842000      -179.075600      1825.968000        59.995510      1777.712000       -61.004290        59.977100        -0.021286
1643124177.0000    306585.900000       160.062400    308854.300000        40.182530    308360.000000       -80.166670      1768.123000       173.050500      1828.988000        52.080090      1780.384000       -68.871690        59.978980         0.040970
1643124178.0000    306269.900000       152.051400    308617.300000        32.138920    307967.500000       -88.207680      1769.389000       165.122000      1825.991000        44.144730      1778.448000       -76.653480        59.978630         0.097961
1643124179.0000    306309.300000       143.262200    308775.300000        23.372980    308153.900000       -97.000850      1768.291000       156.336400      1827.258000        35.335990      1777.392000       -85.528310        59.976080         0.028610
