Terminal: LT 525  ASSIS - LONDRINA ESU C2
Tensão base: 525 kV
SOC inicial: 1643124120
SOC final: 1643124179
Taxa: 1 fasores/s
Total de frames faltantes: - 

Tempo_(SOC)           VA_mod_(V)     VA_ang_(graus)     VB_mod_(V)     VB_ang_(graus)     VC_mod_(V)     VC_ang_(graus)     IA_mod_(A)     IA_ang_(graus)     IB_mod_(A)     IB_ang_(graus)     IC_mod_(A)     IC_ang_(graus)     Frequência        Delta_Freq     Faltante
1643124120.0000    313203.900000       -96.813130    312741.800000       142.903000    310856.900000        23.113180       971.407500       -88.275850       980.500400       151.359000       982.668900        32.036320        59.974000        -0.018768
1643124121.0000    313099.000000      -105.905900    312715.900000       133.820200    310852.200000        14.008330       971.097700       -97.379790       979.792700       142.281800       982.772200        22.927110        59.974180        -0.032501
1643124122.0000    313119.500000      -115.356100    312602.200000       124.369900    310803.500000         4.578716       970.366400      -106.850100       979.749000       132.817100       982.354800        13.460180        59.972930        -0.013504
1643124123.0000    313252.000000      -125.335300    312887.300000       114.384200    310966.700000        -5.427507       968.630700      -116.819700       977.189500       122.822200       979.971600         3.500849        59.972180        -0.011902
1643124124.0000    313285.900000      -135.537200    312870.200000       104.185400    311012.200000       -15.615660       968.188800      -127.007700       976.931900       112.617800       979.576200        -6.709486        59.971630         0.041656
1643124125.0000    313229.700000      -146.245600    312790.700000        93.466130    310864.700000       -26.327250       968.569600      -137.694900       977.780800       101.909500       980.141800       -17.416800        59.970020         0.046234
1643124126.0000    313076.000000      -157.450300    312719.500000        82.259930    310753.600000       -37.546410       970.581500      -148.903100       979.192700        90.705060       981.390900       -28.626780        59.967600        -0.028152
1643124127.0000    313219.000000      -169.049700    312771.700000        70.669070    310891.700000       -49.123660       970.336900      -160.544800       979.184800        79.104240       981.539000       -40.227950        59.967270        -0.032272
1643124128.0000    313247.000000       179.715900    312763.900000        59.450730    310983.900000       -60.347300       967.785800      -171.730800       976.465800        67.959550       979.561700       -51.426410        59.968170        -0.077133
1643124129.0000    313162.800000       168.250200    312768.600000        47.964250    310843.400000       -71.835950       971.660000       176.771500       980.293000        56.389690       982.803900       -62.957980        59.969750         0.113525
1643124130.0000    313246.900000       156.885600    312897.000000        36.617790    311037.800000       -83.201610       968.334500       165.499500       977.340500        45.105530       979.301700       -74.224290        59.971330         0.065460
1643124131.0000    312890.900000       145.301000    312549.900000        25.019390    310626.300000       -94.794410       969.189100       153.925100       978.655300        33.517040       980.078200       -85.814070        59.964310        -0.139618
1643124132.0000    312926.800000       133.005900    312564.700000        12.716510    310633.200000      -107.090200       969.587800       141.633400       979.209000        21.238380       980.631700       -98.101930        59.964450        -0.012131
1643124133.0000    313070.900000       120.068400    312675.300000        -0.219682    310756.000000      -120.026800       969.681700       128.636400       978.758900         8.251237       980.816500      -111.092100        59.963440        -0.021744
1643124134.0000    312975.400000       106.522800    312629.400000       -13.775450    310635.800000      -133.579700       969.104400       115.105200       977.591000        -5.304345       979.775100      -124.601800        59.960490         0.007782
1643124135.0000    313154.300000        92.227140    312701.100000       -28.060500    310800.600000      -147.852300       968.508200       100.818600       977.665900       -19.542750       979.713400      -138.880700        59.959810         0.023804
1643124136.0000    313147.200000        77.764580    312720.600000       -42.528840    310802.600000      -162.322100       968.665000        86.356060       977.478500       -33.998940       980.078700      -153.334300        59.960800         0.015106
1643124137.0000    313063.000000        63.694950    312665.400000       -56.583970    310772.000000      -176.387500       969.818000        72.307770       978.744600       -48.067500       980.995000      -167.364100        59.961420        -0.020142
1643124138.0000    313133.900000        50.274450    312744.400000       -70.003170    310870.500000       170.191400       970.617500        58.926390       978.999800       -61.446540       981.760400       179.234700        59.964760         0.033646
1643124139.0000    313095.300000        37.529490    312673.300000       -82.756540    310780.900000       157.445500       969.607100        46.110020       978.666500       -74.242900       980.874100       166.422000        59.966580         0.112610
1643124140.0000    313039.600000        24.937890    312674.800000       -95.338870    310801.800000       144.856000       970.913100        33.562430       979.489000       -86.772550       981.826500       153.889000        59.967130         0.064316
1643124141.0000    313092.700000        12.925570    312630.400000      -107.369100    310704.800000       132.843600       970.575600        21.546450       979.033500       -98.794670       982.329700       141.865800        59.967190         0.047150
1643124142.0000    313063.500000         1.156258    312629.000000      -119.125000    310759.700000       121.078300       970.448200         9.767607       979.444800      -110.592900       982.203600       130.066700        59.967270        -0.024948
1643124143.0000    313144.000000       -10.013550    312719.100000      -130.294000    310850.000000       109.908500       970.971500        -1.381846       979.614900      -121.724400       982.045800       118.940100        59.970000         0.002289
1643124144.0000    313187.400000       -20.510620    312685.400000      -140.799000    310801.400000        99.419300       969.577900       -11.889590       978.610000      -132.228800       981.339500       108.434000        59.970390        -0.026550
1643124145.0000    313012.200000       -30.629960    312524.700000      -150.907900    310702.300000        89.299800       971.216100       -22.015640       980.153900      -142.328900       983.281500        98.314550        59.972240        -0.007095
1643124146.0000    312992.100000       -40.303400    312437.100000      -160.572400    310700.400000        79.642360       970.601400       -31.658720       979.670300      -151.972500       982.626300        88.642980        59.972500         0.016251
1643124147.0000    313084.300000       -49.843480    312609.600000      -170.131700    310747.600000        70.079940       971.492600       -41.212870       979.818200      -161.603100       982.881100        79.085770        59.973640         0.011444
1643124148.0000    313105.400000       -59.268730    312570.300000      -179.559700    310735.800000        60.666260       968.830600       -50.617870       977.471700      -170.960000       980.576500        69.657850        59.975700         0.075760
1643124149.0000    313093.800000       -68.303580    312606.800000       171.412500    310757.400000        51.624050       969.216300       -59.693430       978.402000       179.991700       981.041400        60.619270        59.975230         0.024490
1643124150.0000    313225.600000       -76.814960    312738.900000       162.895700    310861.200000        43.112710       970.937900       -68.227400       979.692900       171.417600       982.349900        52.081020        59.978070         0.054474
1643124151.0000    313229.300000       -84.337690    312767.500000       155.380500    310900.200000        35.584320       970.672700       -75.749990       979.071700       163.924900       982.341700        44.584770        59.980990         0.042114
1643124152.0000    313206.500000       -91.315560    312782.300000       148.397300    310890.700000        28.603150       969.753100       -82.646510       978.587000       156.999900       981.196800        37.649810        59.982170         0.037079
1643124153.0000    312988.800000       -97.725190    312702.100000       141.988700    310751.000000        22.176370       970.623700       -89.070460       979.388600       150.548800       981.681100        31.227340        59.982680         0.013733
1643124154.0000    313220.300000      -103.616100    312757.700000       136.090000    310830.900000        16.302160       967.494000       -95.017330       976.046100       144.627200       978.820800        25.300820        59.983740        -0.033417
1643124155.0000    313221.900000      -108.687400    312762.400000       131.030300    310889.700000        11.239630       968.690100      -100.052500       977.305100       139.585600       980.116300        20.258750        59.987530         0.018311
1643124156.0000    313236.800000      -112.887800    312868.200000       126.834500    310984.300000         7.030737       964.808700      -104.244200       973.885700       135.405400       976.099300        16.098100        59.987090        -0.095901
1643124157.0000    313228.100000      -116.791400    312779.300000       122.932600    310948.400000         3.134227       967.329500      -108.144700       976.188800       131.500900       978.702000        12.147240        59.990510         0.069351
1643124158.0000    313244.000000      -120.218200    312814.100000       119.498400    310941.700000        -0.296097       967.441600      -111.569800       976.009800       128.068400       978.819900         8.740623        59.991310        -0.051270
1643124159.0000    313203.600000      -122.604500    312837.900000       117.115000    310935.700000        -2.695988       967.277000      -113.964400       975.634200       125.660200       978.134000         6.330731        59.994900         0.038681
1643124160.0000    313249.800000      -124.386200    312810.000000       115.327900    310910.700000        -4.467785       967.148200      -115.718300       975.866800       123.910700       978.292700         4.577394        59.996710         0.052185
1643124161.0000    313157.400000      -125.308700    312728.700000       114.414300    310889.600000        -5.386264       966.210600      -116.641200       975.299000       123.003600       977.828200         3.656065        59.997730        -0.001373
1643124162.0000    313110.700000      -125.855600    312749.900000       113.863000    310824.200000        -5.940975       967.337100      -117.181400       976.429100       122.420600       978.400400         3.075585        59.999670         0.021515
1643124163.0000    312940.300000      -125.927600    312511.300000       113.786200    310623.900000        -6.011173       968.838300      -117.256900       977.475600       122.356000       979.913000         3.025247        60.000310         0.021515
1643124164.0000    313151.500000      -125.945400    312715.100000       113.760700    310789.300000        -6.030496       967.696200      -117.298300       976.024400       122.312300       978.790500         2.990922        59.999880        -0.001602
1643124165.0000    313163.300000      -125.957700    312762.400000       113.753100    310840.200000        -6.047134       966.650500      -117.351100       974.961200       122.298500       977.767600         2.969380        60.000020         0.010529
1643124166.0000    313020.200000      -126.342100    312615.900000       113.382400    310756.400000        -6.421249       968.017300      -117.729100       976.995800       121.907700       979.036500         2.581055        59.997750         0.014191
1643124167.0000    313011.700000      -127.314400    312619.300000       112.392300    310679.300000        -7.407881       969.856000      -118.723400       978.203600       120.936100       981.083000         1.589108        59.997650         0.035477
1643124168.0000    313193.000000      -128.508400    312822.200000       111.199700    310847.900000        -8.602743       966.181700      -119.925600       975.279300       119.687600       977.367400         0.371799        59.995570        -0.042572
1643124169.0000    313075.300000      -130.438200    312708.100000       109.283100    310811.500000       -10.526720       967.146400      -121.865700       975.958200       117.784500       978.606300        -1.548048        59.993800         0.046463
1643124170.0000    313083.900000      -132.983900    312670.100000       106.733700    310784.200000       -13.066050       965.582700      -124.365400       974.139500       115.278700       976.769200        -4.066998        59.990640        -0.061340
1643124171.0000    313001.900000      -136.188200    312615.300000       103.517700    310663.700000       -16.279990       967.866200      -127.560400       976.394700       112.047500       979.155300        -7.248930        59.990450         0.005951
1643124172.0000    313081.300000      -140.113200    312628.700000        99.594030    310700.800000       -20.198480       968.213600      -131.510500       976.747100       108.093100       979.158700       -11.193230        59.988680         0.047836
1643124173.0000    312950.500000      -144.879800    312606.000000        94.843430    310686.700000       -24.972980       967.570900      -136.225500       976.672200       103.380800       978.778100       -15.947950        59.984630        -0.030212
1643124174.0000    312885.400000      -150.773800    312472.800000        88.939990    310582.800000       -30.856280       969.757000      -142.155500       979.092500        97.469220       981.021600       -21.865890        59.980610        -0.035248
1643124175.0000    312955.200000      -157.393500    312573.600000        82.322450    310648.200000       -37.480950       969.149400      -148.780500       978.133600        90.863360       980.163200       -28.483830        59.981290         0.014191
1643124176.0000    312859.100000      -164.891400    312497.800000        74.835200    310618.900000       -44.978760       969.390800      -156.263400       978.055200        83.362310       980.198100       -35.952350        59.978920        -0.050354
1643124177.0000    313114.600000      -172.669000    312655.600000        67.046190    310792.100000       -52.746090       967.491300      -164.047100       976.566000        75.558990       978.924000       -43.778950        59.977790         0.007095
1643124178.0000    312973.600000       179.349300    312498.200000        59.070260    310668.900000       -60.723340       968.821800      -172.043200       977.864100        67.624780       980.486600       -51.735830        59.978240         0.072327
1643124179.0000    312900.800000       170.580600    312545.700000        50.298160    310635.200000       -69.512570       970.524400       179.197400       979.590100        58.821450       981.656900       -60.515690        59.974540         0.005951
