Terminal: LT 500  ARINOS 2 - PIRAPORA 2 C1
Tensão base: 500 kV
SOC inicial: 1643124120
SOC final: 1643124179
Taxa: 1 fasores/s
Total de frames faltantes: - 

Tempo_(SOC)           VA_mod_(V)     VA_ang_(graus)     VB_mod_(V)     VB_ang_(graus)     VC_mod_(V)     VC_ang_(graus)     IA_mod_(A)     IA_ang_(graus)     IB_mod_(A)     IB_ang_(graus)     IC_mod_(A)     IC_ang_(graus)     Frequência        Delta_Freq     Faltante
1643124120.0000    306928.500000       -39.766140    305812.100000      -160.013700    305292.100000        80.107330       487.421500        -4.649122       492.600900      -127.703400       480.843200       114.213400        59.975810         0.056295
1643124121.0000    306891.800000       -48.799950    305774.700000      -169.043100    305300.200000        71.067730       488.518000       -13.648340       493.344100      -136.721200       481.714400       105.194300        59.973900        -0.047460
1643124122.0000    306843.300000       -58.242820    305736.900000      -178.492900    305256.400000        61.611520       489.209600       -23.206500       493.964600      -146.273300       482.812200        95.639970        59.973660        -0.026421
1643124123.0000    306825.400000       -68.231830    305676.900000       171.510900    305226.900000        51.618310       488.980200       -33.221120       493.370900      -156.325900       481.742400        85.638690        59.971890        -0.091172
1643124124.0000    306918.300000       -78.558840    305745.600000       161.181600    305345.500000        41.288090       488.260000       -43.437560       493.195500      -166.513700       481.442700        75.353250        59.971540         0.087212
1643124125.0000    306777.300000       -89.181700    305641.700000       150.554900    305260.200000        30.653390       488.194000       -54.129790       493.141300      -177.190500       481.540600        64.698220        59.969490         0.052060
1643124126.0000    306811.800000      -100.327200    305617.000000       139.393600    305253.800000        19.507530       488.620500       -65.207310       493.541500       171.656900       481.896200        53.575980        59.968080        -0.056477
1643124127.0000    306807.900000      -111.903500    305630.900000       127.814400    305312.000000         7.927101       488.961700       -76.834430       493.890800       160.101800       482.275200        41.955310        59.967730        -0.026070
1643124128.0000    306959.400000      -123.293300    305794.700000       116.423400    305525.500000        -3.462339       486.246400       -88.078060       490.898100       148.796700       479.276100        30.643600        59.970390         0.000482
1643124129.0000    306712.100000      -134.480400    305568.200000       105.225400    305298.800000       -14.653150       487.327900       -99.384380       492.584600       137.480200       480.472300        19.345570        59.967780        -0.020444
1643124130.0000    306718.300000      -145.963800    305584.200000        93.737400    305337.600000       -26.133350       487.654300      -110.925800       493.030200       125.963200       481.060500         7.901226        59.968230         0.149947
1643124131.0000    306580.800000      -157.449500    305510.500000        82.243500    305238.000000       -37.624160       487.156300      -122.314200       492.227100       114.489800       480.307300        -3.565270        59.965620        -0.068464
1643124132.0000    306497.000000      -169.546900    305401.500000        70.149610    305188.800000       -49.705060       488.560500      -134.505600       493.671400       102.369500       481.331000       -15.746050        59.965180         0.000626
1643124133.0000    306560.600000       177.351500    305505.600000        57.030800    305214.300000       -62.808300       488.107000      -147.601900       493.735900        89.274000       481.341500       -28.869600        59.963100        -0.166971
1643124134.0000    306616.500000       163.714000    305590.000000        43.395230    305297.800000       -76.435160       487.313800      -161.123000       492.807200        75.709100       479.953700       -42.429370        59.962640        -0.052943
1643124135.0000    306485.700000       149.542800    305499.600000        29.225990    305181.100000       -90.597300       488.035300      -175.373600       493.038900        61.485120       480.876600       -56.635410        59.959910        -0.037970
1643124136.0000    306615.400000       134.954800    305700.300000        14.643920    305336.800000      -105.180400       486.980700       170.092900       492.505600        46.972610       480.442000       -71.142220        59.961060        -0.086910
1643124137.0000    306513.800000       121.040700    305642.500000         0.741670    305261.400000      -119.084500       487.602000       156.137700       492.645000        33.004950       480.724400       -85.077000        59.962870         0.073914
1643124138.0000    306395.700000       107.780300    305551.500000       -12.513480    305120.100000      -132.338500       488.357600       142.772800       493.878200        19.683730       481.983800       -98.450050        59.963780        -0.014426
1643124139.0000    306502.000000        94.899700    305685.300000       -25.381390    305228.900000      -145.212500       488.761400       129.949300       493.754800         6.816257       481.849500      -111.333200        59.965340         0.166783
1643124140.0000    306380.500000        82.461880    305562.400000       -37.813200    305065.400000      -157.645000       489.626600       117.475100       495.056500        -5.632350       482.969400      -123.804800        59.965010         0.005026
1643124141.0000    306455.200000        70.350820    305602.500000       -49.917500    305086.700000      -169.748000       488.794900       105.357100       493.600100       -17.816430       481.726900      -135.888400        59.967660         0.162537
1643124142.0000    306412.000000        58.692170    305573.200000       -61.563160    305046.700000       178.593900       489.615000        93.643620       494.775800       -29.447390       482.312400      -147.584500        59.967850        -0.028361
1643124143.0000    306517.900000        47.477780    305647.800000       -72.777400    305084.400000       167.379300       487.939500        82.499130       492.892500       -40.647340       481.076700      -158.733200        59.970700        -0.060994
1643124144.0000    306542.300000        36.924760    305647.900000       -83.315350    305120.400000       156.830700       487.887900        71.971450       493.264700       -51.136650       480.967900      -169.264900        59.972350        -0.042525
1643124145.0000    306417.800000        26.962190    305476.600000       -93.279180    304929.500000       146.866700       488.962600        61.904900       494.397000       -61.244090       482.440700      -179.380700        59.971670        -0.021021
1643124146.0000    306494.600000        17.289130    305569.900000      -102.949600    305001.600000       137.183700       489.158700        52.213210       494.266500       -70.846340       482.638300       171.002700        59.973240        -0.052056
1643124147.0000    306475.700000         7.806904    305587.600000      -112.445500    304918.800000       127.679000       488.727000        42.691740       494.241100       -80.369520       482.166900       161.487300        59.973560        -0.003210
1643124148.0000    306559.100000        -1.704542    305658.800000      -121.960700    304968.100000       118.157500       488.099900        33.248210       493.913200       -89.793560       481.985200       151.946500        59.974550        -0.033338
1643124149.0000    306676.900000       -10.783270    305698.300000      -131.039700    305044.500000       109.081800       487.634500        24.201150       493.304100       -98.886060       481.499300       142.977100        59.976390        -0.026598
1643124150.0000    306756.900000       -19.348770    305737.000000      -139.605700    305109.100000       100.514100       488.403300        15.686560       493.767000      -107.409000       482.041300       134.453200        59.976990        -0.013926
1643124151.0000    306822.900000       -26.961470    305796.900000      -147.225100    305153.100000        92.891030       486.356700         8.116839       491.996500      -114.971500       480.342800       126.843900        59.980810        -0.009935
1643124152.0000    306710.800000       -33.797420    305620.600000      -154.062300    305018.400000        86.058440       487.075700         1.168937       492.429800      -121.857800       480.520200       119.954400        59.981820        -0.020989
1643124153.0000    306817.200000       -40.268800    305722.300000      -160.533600    305142.700000        79.582260       487.873700        -5.227089       493.049500      -128.367900       480.978700       113.514600        59.982050        -0.131083
1643124154.0000    306968.400000       -46.326310    305856.600000      -166.595600    305288.300000        73.519260       487.966600       -11.219930       493.357500      -134.332000       481.731800       107.509300        59.985270        -0.138398
1643124155.0000    306957.500000       -51.352010    305832.100000      -171.618600    305304.200000        68.493360       487.959600       -16.217960       493.718600      -139.355400       481.474400       102.510400        59.987530         0.068507
1643124156.0000    306897.100000       -55.648170    305769.700000      -175.919100    305242.300000        64.192120       488.134400       -20.565520       493.916600      -143.683500       481.571400        98.152080        59.988360        -0.096727
1643124157.0000    306843.600000       -59.391170    305667.800000      -179.661200    305185.400000        60.454860       488.820700       -24.330050       494.083500      -147.416500       482.033400        94.437030        59.990360         0.009568
1643124158.0000    306976.300000       -62.909280    305804.800000       176.817000    305325.100000        56.931690       488.071900       -27.731930       493.630700      -150.887000       481.328500        91.003910        59.992210        -0.022403
1643124159.0000    307047.200000       -65.418830    305886.500000       174.311700    305430.300000        54.421450       486.778000       -30.258340       491.566800      -153.327100       479.623900        88.553280        59.994010         0.131520
1643124160.0000    306990.600000       -67.021420    305779.300000       172.695800    305296.500000        52.819540       487.424800       -31.848170       493.257700      -155.003500       481.059300        86.852520        59.997180        -0.135733
1643124161.0000    307101.000000       -68.092820    305901.300000       171.630000    305448.000000        51.748520       488.412700       -32.955200       493.601200      -156.098100       481.183000        85.754590        59.997810        -0.060511
1643124162.0000    307074.800000       -68.519870    305842.700000       171.193400    305364.300000        51.321370       488.863700       -33.365070       494.307600      -156.537200       482.037200        85.326840        59.999870         0.007004
1643124163.0000    307013.500000       -68.503290    305808.500000       171.211700    305327.300000        51.334480       488.298200       -33.354080       493.945000      -156.539000       481.428300        85.377610        60.000600        -0.104179
1643124164.0000    307033.300000       -68.521450    305840.900000       171.191400    305343.300000        51.312950       488.582000       -33.390880       493.830600      -156.544000       481.800900        85.336740        60.000900        -0.132729
1643124165.0000    307085.500000       -68.728590    305957.000000       170.987300    305447.100000        51.096720       486.379600       -33.556280       491.793400      -156.667600       479.731000        85.223680        60.000500         0.012851
1643124166.0000    306881.600000       -68.893920    305761.000000       170.845300    305355.800000        50.941630       487.356000       -33.778390       492.745000      -156.870200       480.635700        84.969300        59.999070        -0.096848
1643124167.0000    306906.300000       -69.788440    305682.900000       169.953700    305348.800000        50.064940       488.471200       -34.717110       493.593000      -157.800300       481.824400        84.080890        59.996680        -0.132930
1643124168.0000    307065.400000       -71.385250    305848.100000       168.357800    305524.900000        48.466670       486.922600       -36.171280       491.667400      -159.264200       479.935500        82.606020        59.995280        -0.081137
1643124169.0000    306990.800000       -73.180890    305739.200000       166.550900    305393.800000        46.670650       486.290600       -38.067900       490.925900      -161.211100       479.718500        80.742870        59.993900        -0.124392
1643124170.0000    307008.300000       -75.805180    305739.200000       163.930900    305436.000000        44.050670       487.703900       -40.715890       492.380900      -163.800300       480.951200        78.124790        59.990820        -0.035615
1643124171.0000    306995.500000       -78.903500    305758.400000       160.831900    305457.600000        40.945560       487.248200       -43.798430       492.416700      -166.933700       480.249300        75.002270        59.991450        -0.075283
1643124172.0000    306933.000000       -82.771610    305652.100000       156.959500    305374.000000        37.082470       488.482000       -47.737130       493.510500      -170.818300       481.915300        71.083660        59.988780        -0.047238
1643124173.0000    306971.100000       -87.583400    305714.600000       152.147000    305446.700000        32.265980       487.271400       -52.475720       492.126200      -175.541300       480.536700        66.341600        59.986680         0.008016
1643124174.0000    306769.700000       -93.221450    305538.500000       146.503500    305269.100000        26.621340       487.147000       -58.149570       491.795600       178.760900       480.266600        60.708290        59.981580        -0.028138
1643124175.0000    306919.100000       -99.964020    305672.800000       139.753300    305415.700000        19.878650       486.511400       -64.827670       491.225400       172.001100       479.184300        53.988890        59.981520        -0.010817
1643124176.0000    306911.000000      -107.465800    305679.600000       132.248700    305444.300000        12.375410       486.948200       -72.291390       491.699200       164.550500       479.761900        46.489150        59.978760        -0.139539
1643124177.0000    306985.000000      -115.457600    305775.600000       124.259700    305581.800000         4.384980       486.671400       -80.217820       491.743300       156.596500       479.950700        38.483770        59.979000         0.018905
1643124178.0000    306949.900000      -123.323700    305738.400000       116.382300    305528.500000        -3.482027       486.856900       -88.162210       491.875900       148.667800       480.176500        30.640700        59.978850        -0.106271
1643124179.0000    306742.400000      -131.918300    305588.200000       107.790800    305399.400000       -12.078450       489.236600       -96.804240       494.542000       140.021600       481.975000        21.942760        59.973830        -0.108577
