Terminal: LT 525  NOVA STA RITA - C.NOVOS C1
Tensão base: 525 kV
SOC inicial: 1643124120
SOC final: 1643124179
Taxa: 1 fasores/s
Total de frames faltantes: - 

Tempo_(SOC)           VA_mod_(V)     VA_ang_(graus)     VB_mod_(V)     VB_ang_(graus)     VC_mod_(V)     VC_ang_(graus)     IA_mod_(A)     IA_ang_(graus)     IB_mod_(A)     IB_ang_(graus)     IC_mod_(A)     IC_ang_(graus)     Frequência        Delta_Freq     Faltante
1643124120.0000    312717.400000      -137.813500    312908.000000       101.816600    310494.600000       -18.121620       509.788400        48.657970       534.882100       -72.229830       509.864100       165.556300        59.975100         0.001602
1643124121.0000    312646.100000      -146.954800    312726.600000        92.648760    310224.100000       -27.258780       510.857400        39.473320       538.108600       -81.490910       511.050700       156.113100        59.972600        -0.121765
1643124122.0000    312703.900000      -156.394600    312964.500000        83.213100    310422.200000       -36.725900       510.988500        30.094770       537.479700       -90.741930       511.967200       146.885200        59.974100         0.104599
1643124123.0000    312676.200000      -166.299000    312793.400000        73.381550    310660.900000       -46.571540       509.999400        20.172970       534.464400      -100.777800       509.199100       137.149700        59.971360         0.026779
1643124124.0000    312835.100000      -176.473600    312978.400000        63.172740    310665.500000       -56.767440       509.798200        10.061410       535.465800      -110.843200       510.085100       126.940500        59.973000         0.062027
1643124125.0000    312806.400000       172.820700    313015.800000        52.423140    310456.700000       -67.504430       509.053400        -0.583157       535.878300      -121.548000       509.799500       116.166800        59.973910         0.196152
1643124126.0000    312726.800000       161.555300    312851.900000        41.220570    310634.300000       -78.725160       510.079800       -11.913740       534.363800      -132.881700       509.079400       105.037900        59.967130         0.021973
1643124127.0000    312545.000000       149.894700    312696.900000        29.551190    310428.900000       -90.390260       510.840000       -23.688640       535.960700      -144.566300       510.739000        93.188690        59.967070         0.072556
1643124128.0000    312817.800000       138.783800    313034.800000        18.402930    310564.400000      -101.539500       509.621200       -34.644390       535.733600      -155.514300       510.372900        82.180500        59.969800        -0.002289
1643124129.0000    312852.100000       127.174900    312974.200000         6.774404    310433.700000      -113.136900       510.778500       -46.195350       537.048200      -167.172500       510.408100        70.526370        59.969070        -0.030899
1643124130.0000    312830.400000       115.918500    312934.000000        -4.436561    310642.300000      -124.366500       511.076600       -57.554020       536.690100      -178.502200       510.853800        59.298400        59.969210         0.077133
1643124131.0000    312563.800000       104.250000    312583.900000       -16.148940    310122.000000      -136.046500       511.407500       -69.306260       538.067700       169.681200       510.733200        47.422020        59.967800         0.062943
1643124132.0000    312589.000000        91.955730    312897.500000       -28.436130    310332.800000      -148.380700       511.138500       -81.594130       536.810700       157.601200       511.709500        35.319100        59.966970         0.033875
1643124133.0000    312699.600000        79.004760    312897.900000       -41.362500    310483.300000      -161.304100       511.474000       -94.384230       537.086400       144.661000       511.167700        22.439890        59.961180        -0.127258
1643124134.0000    312679.800000        65.473660    312729.500000       -54.953100    310110.200000      -174.839500       511.158500      -107.998800       538.436100       131.017200       510.866200         8.676007        59.961560        -0.081024
1643124135.0000    312835.900000        51.218970    312899.200000       -69.162670    310489.100000       170.926200       511.355500      -122.179800       537.462200       116.811900       510.773800        -5.396718        59.960650         0.020828
1643124136.0000    312774.900000        36.713410    312972.700000       -83.658840    310549.000000       156.403000       511.497900      -136.710100       537.512700       102.403700       511.672000       -19.861320        59.958310        -0.065918
1643124137.0000    312852.900000        22.658280    312955.000000       -97.719470    310542.600000       142.356400       511.284000      -150.748300       537.439500        88.367550       511.533400       -33.913610        59.961310        -0.026550
1643124138.0000    312940.800000         9.215087    313020.900000      -111.164000    310636.300000       128.917000       511.323700      -164.167500       537.994000        74.920750       511.618400       -47.389720        59.965630         0.042801
1643124139.0000    312600.900000        -3.515709    312820.300000      -123.913700    310252.200000       116.155100       511.126600      -177.040700       537.534100        62.077440       511.715600       -60.268410        59.965710         0.062256
1643124140.0000    312648.900000       -16.125790    312850.000000      -136.472700    310531.900000       103.572700       511.873700       170.290500       537.072300        49.409410       511.798500       -72.750060        59.966540         0.047150
1643124141.0000    312775.800000       -28.140540    312846.600000      -148.511400    310492.600000        91.565570       510.466500       158.467500       536.100200        37.503430       510.152800       -84.729410        59.967980         0.061111
1643124142.0000    312653.800000       -39.928360    312721.300000      -160.284500    310429.700000        79.788710       511.567400       146.583700       536.155900        25.586620       510.245400       -96.529050        59.967870         0.079193
1643124143.0000    312640.800000       -51.055030    312803.300000      -171.397800    310530.300000        68.654220       510.979200       135.395000       536.161800        14.437830       510.464300      -107.699300        59.969230         0.051041
1643124144.0000    312870.800000       -61.534770    312905.300000       178.084900    310528.900000        58.174960       510.878300       125.023100       537.160000         4.017222       510.410200      -118.226200        59.971990         0.003433
1643124145.0000    312755.700000       -71.717730    312814.400000       167.874100    310292.400000        47.972020       510.883100       114.801500       538.433400        -6.143520       511.510300      -128.562900        59.971580        -0.031357
1643124146.0000    312683.300000       -81.375190    312786.500000       158.268400    310475.300000        38.340920       511.123100       105.135000       536.937300       -15.815960       510.726700      -138.008900        59.974670         0.034332
1643124147.0000    312949.600000       -90.878790    313067.900000       148.745500    310674.400000        28.821430       509.606800        95.755940       535.665100       -25.170180       509.458500      -147.436200        59.973000        -0.029068
1643124148.0000    312825.900000      -100.257800    313001.000000       139.365700    310563.900000        19.430000       509.867500        86.321010       535.525500       -34.565690       509.972600      -156.833200        59.973900        -0.059738
1643124149.0000    312873.300000      -109.298800    313024.800000       130.309600    310541.600000        10.384160       509.433800        77.312970       535.699000       -43.574390       509.559400      -165.888100        59.975100        -0.057678
1643124150.0000    312895.800000      -117.886900    313041.200000       121.719500    310530.500000         1.800525       510.276600        68.708620       536.781500       -52.201160       510.801100      -174.510600        59.977040        -0.043945
1643124151.0000    312528.300000      -125.474800    312587.200000       114.183200    310360.000000        -5.750470       512.605200        60.918910       537.428200       -60.067750       511.356000       177.805300        59.980310         0.003662
1643124152.0000    312775.800000      -132.390500    312916.700000       107.249200    310595.400000       -12.684700       511.896700        54.115540       537.374000       -66.828970       511.753700       170.975100        59.981710         0.023804
1643124153.0000    312936.800000      -138.767000    313147.600000       100.851600    310689.600000       -19.083680       510.007700        47.890670       536.166600       -73.049400       510.007100       164.695000        59.983110        -0.000229
1643124154.0000    312873.800000      -144.588000    313080.800000        95.027660    310599.300000       -24.901990       509.467500        42.056470       535.096700       -78.830670       509.401100       158.911400        59.985420         0.026321
1643124155.0000    312634.400000      -149.793000    312899.800000        89.822970    310375.800000       -30.120940       511.860800        36.635440       538.378800       -84.163480       513.080200       153.506600        59.989020         0.005722
1643124156.0000    312519.300000      -153.886100    312652.800000        85.768030    310371.400000       -34.174690       512.476700        32.482030       537.958900       -88.467790       511.864200       149.359400        59.988040         0.028381
1643124157.0000    312886.100000      -157.783000    313080.700000        81.832010    310600.800000       -38.101780       510.108200        28.829490       536.672500       -92.098880       510.778900       145.584500        59.991860         0.025635
1643124158.0000    312897.800000      -161.209000    313077.200000        78.408910    310631.900000       -41.519650       509.588100        25.435210       535.944300       -95.490660       509.689000       142.223700        59.992980         0.069122
1643124159.0000    312662.400000      -163.636800    312863.800000        76.002250    310488.900000       -43.942920       510.372700        22.933100       536.393000       -97.976480       510.819500       139.744400        59.994700         0.000916
1643124160.0000    312819.600000      -165.415000    312944.400000        74.203830    310526.000000       -45.717020       510.719400        21.194450       536.581000       -99.786220       510.245100       137.966300        59.997260        -0.081711
1643124161.0000    312745.400000      -166.301700    312961.000000        73.329290    310526.600000       -46.614500       509.808100        20.263100       535.830400      -100.627900       510.292200       137.080900        59.996210        -0.059509
1643124162.0000    312613.100000      -166.952700    312738.400000        72.669640    310319.700000       -47.255190       512.047600        19.600980       537.589700      -101.398600       511.121400       136.407600        59.996980        -0.075531
1643124163.0000    312639.400000      -167.072600    312689.400000        72.556880    310358.300000       -47.358010       512.234900        19.504450       537.840900      -101.487600       511.393800       136.341400        60.001720        -0.021744
1643124164.0000    312701.800000      -167.019000    312896.400000        72.604130    310450.000000       -47.324910       511.436300        19.592490       537.017700      -101.369000       510.980800       136.410800        60.002100        -0.015106
1643124165.0000    312833.200000      -166.955600    313040.000000        72.673450    310625.300000       -47.270030       509.435900        19.731360       535.924700      -101.207800       509.613500       136.516100        59.999280        -0.005951
1643124166.0000    312579.300000      -167.418300    312537.800000        72.166540    310035.900000       -47.711950       509.966200        19.073890       538.157300      -101.954400       510.206400       135.647200        59.996470        -0.075989
1643124167.0000    312435.200000      -168.366000    312802.400000        71.226320    310136.500000       -48.721110       509.000700        18.025910       536.081800      -102.771700       510.464000       134.745900        60.001290         0.176239
1643124168.0000    312547.300000      -169.475900    312955.600000        70.118440    310277.700000       -49.834800       509.679400        17.044180       536.700300      -103.833300       510.997700       133.771100        59.993430         0.011673
1643124169.0000    312363.500000      -171.552700    312521.300000        68.129970    310370.800000       -51.824440       511.785800        14.849370       535.997400      -106.053600       510.699500       131.851200        59.993920         0.030441
1643124170.0000    312513.200000      -174.016500    312602.500000        65.593190    310171.800000       -54.317790       511.005600        12.418520       537.453400      -108.523400       511.184500       129.193000        59.992790         0.066605
1643124171.0000    312795.700000      -177.175800    313058.500000        62.430560    310494.700000       -57.506890       508.054800         9.497939       534.450600      -111.390100       508.591700       126.278300        59.991070         0.005951
1643124172.0000    312620.500000       178.815000    312652.100000        58.409170    310143.500000       -61.486700       510.154900         5.353503       537.126200      -115.649100       509.766100       122.058300        59.986740        -0.018997
1643124173.0000    312840.900000       174.150400    313082.100000        53.775450    310620.900000       -66.167810       507.323800         0.853856       533.197300      -120.028000       507.435900       117.674500        59.987070         0.036621
1643124174.0000    312500.000000       168.203000    312948.300000        47.795820    310228.900000       -72.165160       506.905500        -5.335158       534.013700      -126.052700       509.435500       111.464000        59.981030        -0.109406
1643124175.0000    312725.600000       161.583700    312962.700000        41.215410    310542.200000       -78.732780       507.613300       -11.767370       533.977800      -132.658000       508.390600       105.068900        59.979900        -0.049210
1643124176.0000    312852.700000       154.140900    313074.800000        33.771390    310654.600000       -86.171930       506.864800       -19.117800       533.144800      -139.990000       507.561200        97.706260        59.978580         0.000229
1643124177.0000    312574.400000       146.346400    312732.200000        25.928350    310118.300000       -93.979500       507.935400       -27.155230       535.407500      -148.088500       508.937000        89.479260        59.977240        -0.085831
1643124178.0000    312632.700000       138.314600    312758.300000        17.941640    310365.100000      -101.987300       509.390600       -35.078450       535.023900      -156.051300       508.953900        81.743920        59.978000         0.108032
1643124179.0000    312825.000000       129.581500    313048.300000         9.208928    310597.500000      -110.733700       507.297000       -43.707230       533.226500      -164.613500       507.229700        73.137940        59.974440        -0.059052
