Terminal: LT 500  PIRAPORA 2 - ARINOS 2 C1
Tensão base: 500 kV
SOC inicial: 1643124120
SOC final: 1643124179
Taxa: 1 fasores/s
Total de frames faltantes: - 

Tempo_(SOC)           VA_mod_(V)     VA_ang_(graus)     VB_mod_(V)     VB_ang_(graus)     VC_mod_(V)     VC_ang_(graus)     IA_mod_(A)     IA_ang_(graus)     IB_mod_(A)     IB_ang_(graus)     IC_mod_(A)     IC_ang_(graus)     Frequência        Delta_Freq     Faltante
1643124120.0000    313972.800000       -43.276170    312392.600000      -163.292900    312687.100000        77.050980       407.098700       155.110800       418.688400        31.616040       404.638700       -86.832370        59.975720         0.069055
1643124121.0000    313960.000000       -52.319580    312396.600000      -172.329100    312717.000000        68.008360       408.096500       146.126700       419.802000        22.684880       405.652400       -95.791800        59.973810        -0.055279
1643124122.0000    313899.200000       -61.776450    312373.600000       178.210700    312660.400000        58.543610       408.917100       136.581600       421.133100        13.150850       406.847700      -105.260000        59.973590        -0.024878
1643124123.0000    313855.900000       -71.764300    312296.800000       168.220600    312589.300000        48.559890       408.706000       126.586300       420.330000         3.087022       406.243900      -115.357800        59.971760        -0.124551
1643124124.0000    313963.700000       -82.085880    312409.400000       157.900500    312710.100000        38.238150       407.932000       116.316700       419.706900        -7.168070       405.466800      -125.558000        59.971390         0.050357
1643124125.0000    313803.800000       -92.717640    312303.300000       147.272500    312595.800000        27.599930       408.145800       105.608700       419.836900       -17.819880       405.562000      -136.289700        59.969360         0.041269
1643124126.0000    313860.700000      -103.868200    312307.500000       136.112200    312581.100000        16.452780       408.459700        94.517290       419.927200       -28.904580       405.886400      -147.354300        59.967900        -0.021094
1643124127.0000    313873.200000      -115.446500    312341.900000       124.537200    312616.900000         4.872303       408.389300        82.935100       420.345700       -40.450310       406.228100      -158.947800        59.967870        -0.030053
1643124128.0000    314004.000000      -126.816700    312468.400000       113.171400    312767.400000        -6.494936       405.681200        71.537340       417.800700       -51.944060       403.130200      -170.408500        59.970410        -0.026191
1643124129.0000    313779.500000      -138.019600    312246.500000       101.963800    312518.700000       -17.700620       407.030500        60.325380       419.476100       -63.175540       404.884100       178.388400        59.967720        -0.027876
1643124130.0000    313816.000000      -149.507600    312267.700000        90.475780    312547.300000       -29.186610       407.743800        48.857370       419.648800       -74.599250       405.236000       166.895700        59.968320         0.155501
1643124131.0000    313702.500000      -160.991700    312182.700000        78.988860    312434.600000       -40.677040       406.962500        37.383930       419.461200       -86.127010       404.452100       155.413200        59.965540        -0.043905
1643124132.0000    313652.900000      -173.099200    312074.900000        66.887950    312387.700000       -52.771780       408.585000        25.285160       420.675800       -98.201100       405.700500       143.312900        59.965310        -0.008892
1643124133.0000    313740.700000       173.802700    312160.700000        53.772440    312394.800000       -65.877830       408.206800        12.246950       420.549900      -111.315600       405.894300       130.213800        59.963140        -0.158651
1643124134.0000    313808.200000       160.177700    312231.800000        40.148920    312470.100000       -79.502460       407.167400        -1.456843       419.301900      -124.899500       404.858600       116.601700        59.962610        -0.076477
1643124135.0000    313701.900000       146.002200    312115.300000        25.975190    312364.500000       -93.675030       407.821900       -15.586610       419.969500      -139.075800       405.348100       102.428900        59.959860        -0.000990
1643124136.0000    313836.100000       131.426700    312284.900000        11.403230    312534.100000      -108.254700       407.210800       -30.228800       419.244700      -153.693600       404.432000        87.906340        59.960750        -0.094059
1643124137.0000    313747.500000       117.511700    312178.300000        -2.505443    312465.900000      -122.164100       407.876900       -44.131550       419.722600      -167.621200       404.762100        73.916950        59.963070         0.053832
1643124138.0000    313622.800000       104.244800    312075.600000       -15.773600    312350.500000      -135.434800       408.448700       -57.439580       420.613800       179.090900       406.352100        60.615360        59.963680        -0.034963
1643124139.0000    313744.100000        91.371890    312203.300000       -28.641920    312500.500000      -148.306500       408.605300       -70.245990       420.948300       166.236600       406.079100        47.809350        59.965560         0.160946
1643124140.0000    313619.400000        78.926110    312066.800000       -41.089000    312362.600000      -160.751200       409.950300       -82.672000       421.962400       153.862100       407.313400        35.326810        59.964730         0.035035
1643124141.0000    313653.800000        66.827470    312070.900000       -53.188880    312376.700000      -172.845500       408.595200       -94.870930       420.800800       141.646400       406.165600        23.130270        59.967770         0.152907
1643124142.0000    313603.800000        55.164220    312043.500000       -64.845310    312368.100000       175.491200       410.040500      -106.486000       421.531100       130.034100       407.052200        11.533650        59.967740        -0.016949
1643124143.0000    313669.700000        43.964770    312100.900000       -76.051670    312395.400000       164.289700       408.062700      -117.752100       420.143300       118.772900       405.426900         0.252261        59.970910        -0.069059
1643124144.0000    313685.100000        33.411910    312108.300000       -86.594600    312452.700000       153.742400       408.036300      -128.300500       420.607500       108.241500       405.451400       -10.236570        59.972110        -0.065880
1643124145.0000    313537.300000        23.439890    311950.700000       -96.572010    312274.400000       143.769500       409.357700      -138.296700       421.583300        98.264400       407.075300       -20.273890        59.971420         0.012629
1643124146.0000    313589.700000        13.764420    312056.000000      -106.245200    312363.700000       134.086600       409.571200      -148.038900       421.594900        88.569970       407.352800       -29.948390        59.973190        -0.040701
1643124147.0000    313547.300000         4.285216    312087.600000      -115.740600    312282.800000       124.588000       409.421300      -157.506200       421.228200        79.091220       406.782100       -39.441490        59.973760        -0.017736
1643124148.0000    313615.100000        -5.221611    312174.700000      -125.253000    312332.300000       115.075500       408.496200      -167.001000       420.711700        69.636440       406.282500       -48.928960        59.975010        -0.046717
1643124149.0000    313708.700000       -14.299990    312223.400000      -134.329700    312411.900000       106.005600       407.895900      -176.053800       420.049800        60.506240       405.927200       -57.988200        59.976180        -0.034797
1643124150.0000    313811.700000       -22.867250    312301.800000      -142.896500    312503.900000        97.442440       408.381700       175.491400       420.287700        51.969620       406.253900       -66.409680        59.977060        -0.011913
1643124151.0000    313825.100000       -30.466250    312355.300000      -150.499800    312517.000000        89.835210       406.154700       167.755300       418.621900        44.407680       404.651000       -74.155360        59.980840        -0.015556
1643124152.0000    313707.000000       -37.316170    312166.100000      -157.352100    312351.700000        82.995510       407.174400       160.892600       419.727800        37.423800       404.918000       -81.117120        59.981700        -0.002631
1643124153.0000    313833.600000       -43.788430    312297.500000      -163.823700    312481.700000        76.522790       407.562800       154.519400       419.775000        30.984750       405.262100       -87.503780        59.981910        -0.102708
1643124154.0000    313996.000000       -49.844550    312482.700000      -169.880700    312650.100000        70.462540       407.545500       148.475300       419.818400        25.024320       405.599900       -93.476240        59.985290        -0.102369
1643124155.0000    313999.400000       -54.872550    312467.400000      -174.906200    312656.700000        65.438440       407.348900       143.503100       420.120600        20.003660       405.192200       -98.482890        59.987530         0.080790
1643124156.0000    313931.100000       -59.175140    312411.400000      -179.210400    312589.700000        61.133120       408.271900       139.197600       420.477400        15.653370       406.091600      -102.850300        59.988330        -0.095769
1643124157.0000    313870.600000       -62.922080    312312.200000       177.047400    312530.500000        57.394650       408.546800       135.396300       420.549300        11.981220       406.208000      -106.484800        59.990530         0.014533
1643124158.0000    314018.600000       -66.434620    312468.300000       173.534300    312681.300000        53.880420       407.435000       131.932100       419.550000         8.469949       405.314000      -109.976800        59.992390        -0.011557
1643124159.0000    314047.100000       -68.929530    312521.700000       171.045500    312751.800000        51.384430       405.593400       129.344700       417.717500         5.918038       403.575400      -112.569200        59.994080         0.114313
1643124160.0000    314017.300000       -70.544610    312426.700000       169.415500    312617.600000        49.772230       407.045300       127.812800       419.426800         4.291710       404.441500      -114.206600        59.996890        -0.166911
1643124161.0000    314139.100000       -71.621620    312552.100000       168.345500    312775.200000        48.698220       407.821000       126.704400       419.816000         3.222630       405.416800      -115.271400        59.997620        -0.068547
1643124162.0000    314125.400000       -72.050970    312526.200000       167.905700    312705.700000        48.265720       408.347900       126.340200       420.985300         2.855191       405.790800      -115.677000        59.999740        -0.038252
1643124163.0000    314058.900000       -72.031280    312473.800000       167.927100    312653.600000        48.283780       407.518100       126.323000       420.176300         2.842841       405.397000      -115.656600        60.000770        -0.131308
1643124164.0000    314071.200000       -72.052970    312507.100000       167.906500    312682.600000        48.259130       407.927200       126.313800       420.227200         2.853371       405.698600      -115.635800        60.000560        -0.144995
1643124165.0000    314086.800000       -72.242610    312593.000000       167.722700    312762.000000        48.061670       405.626300       126.060800       418.203600         2.599546       403.615000      -115.884100        60.000470        -0.028849
1643124166.0000    313894.100000       -72.417530    312407.100000       167.567800    312664.900000        47.895470       406.575000       125.901200       419.200700         2.401549       404.840700      -116.068900        59.999110        -0.114379
1643124167.0000    313932.700000       -73.321360    312350.400000       166.668400    312679.000000        47.008820       407.702000       124.994800       419.733000         1.559247       405.898800      -116.935300        59.997080        -0.159686
1643124168.0000    314088.500000       -74.900590    312507.000000       165.090900    312842.500000        45.430550       405.786300       123.430500       417.820100        -0.022869       403.515900      -118.500300        59.995440        -0.131414
1643124169.0000    313982.800000       -76.702600    312354.400000       163.283400    312689.400000        43.633240       406.517000       121.514000       418.043700        -1.962723       403.740400      -120.366000        59.993680        -0.129340
1643124170.0000    314040.200000       -79.334360    312387.300000       160.655300    312753.000000        41.007020       406.889100       118.966700       419.011100        -4.490769       404.470900      -122.932300        59.991000        -0.043208
1643124171.0000    314010.300000       -82.432510    312404.900000       157.559800    312758.000000        37.902460       407.148000       115.828600       419.094300        -7.645910       404.479000      -126.087000        59.991260        -0.100782
1643124172.0000    313972.800000       -86.311510    312319.200000       153.677200    312680.300000        34.029570       408.375600       112.020500       420.182000       -11.537380       405.423700      -129.871100        59.988700        -0.073217
1643124173.0000    314002.500000       -91.115300    312373.800000       148.877100    312741.800000        29.223590       407.177400       107.190400       418.805100       -16.273710       404.538600      -134.703000        59.986470        -0.033387
1643124174.0000    313795.200000       -96.754750    312197.900000       143.235800    312542.400000        23.578400       406.779500       101.520600       418.758400       -21.930040       404.262800      -140.348400        59.981230        -0.038283
1643124175.0000    313947.500000      -103.491100    312323.800000       136.494200    312656.400000        16.843890       406.099200        94.799950       417.984400       -28.649740       403.504700      -147.140700        59.981450        -0.028522
1643124176.0000    313964.300000      -110.996100    312347.200000       128.992100    312689.600000         9.338860       406.561600        87.306490       418.309400       -36.170010       403.769700      -154.537800        59.978640        -0.128928
1643124177.0000    314056.400000      -118.985300    312458.100000       121.007300    312810.300000         1.348903       406.244100        79.375370       418.124500       -44.079240       403.719800      -162.573900        59.979010         0.012515
1643124178.0000    314030.600000      -126.857100    312417.800000       113.131100    312752.900000        -6.522745       406.659800        71.511150       418.198200       -52.003310       404.132400      -170.417800        59.978710        -0.112415
1643124179.0000    313888.200000      -135.471900    312293.500000       104.521300    312644.100000       -15.137880       408.888500        62.977230       420.606400       -60.567510       405.840800      -178.950300        59.973710        -0.107161
