Terminal: LT 500  PARNAIBA III - BACABEIRA C2
Tensão base: 500 kV
SOC inicial: 1643124120
SOC final: 1643124179
Taxa: 1 fasores/s
Total de frames faltantes: - 

Tempo_(SOC)           VA_mod_(V)     VA_ang_(graus)     VB_mod_(V)     VB_ang_(graus)     VC_mod_(V)     VC_ang_(graus)     IA_mod_(A)     IA_ang_(graus)     IB_mod_(A)     IB_ang_(graus)     IC_mod_(A)     IC_ang_(graus)     Frequência        Delta_Freq     Faltante
1643124120.0000    308901.900000       -22.412600    310012.500000      -142.397700    309002.700000        97.483330       107.646200        76.916390       116.861000       -38.472020       118.307300      -163.733500        59.974860        -0.022888
1643124121.0000    308847.200000       -31.432540    310003.600000      -151.418100    308981.500000        88.462140       107.715800        68.254460       116.429600       -47.432050       117.935400      -172.336700        59.973670        -0.035706
1643124122.0000    308851.300000       -40.858960    310002.100000      -160.844500    308969.800000        79.030340       107.978700        58.968300       117.439300       -56.626250       118.178700       178.336700        59.973280         0.000687
1643124123.0000    308862.600000       -50.835560    310052.300000      -170.830700    308973.400000        69.048650       107.987800        49.224830       117.376900       -66.216880       118.255500       168.790400        59.971260         0.001831
1643124124.0000    308849.900000       -61.227990    310072.400000       178.777500    308963.300000        58.645420       108.484200        38.357590       116.810000       -77.162570       118.680100       157.826100        59.971500         0.010300
1643124125.0000    308875.700000       -71.799060    309936.800000       168.218700    308958.800000        48.104810       108.389800        28.734760       117.261200       -87.334120       118.554000       147.386400        59.969680        -0.029068
1643124126.0000    308879.300000       -82.957210    309973.500000       157.041100    308906.900000        36.933380       107.981500        16.991790       116.946300       -98.185260       118.582100       136.457100        59.968580         0.005722
1643124127.0000    308843.600000       -94.530880    309989.300000       145.475200    308919.800000        25.356130       108.169200         5.573987       116.822700      -109.868600       118.724500       125.007400        59.966260        -0.018311
1643124128.0000    308888.100000      -106.051700    309989.700000       133.943700    308892.900000        13.835200       108.108000        -7.168782       117.573900      -122.099500       119.313500       112.325600        59.969040        -0.008011
1643124129.0000    308880.500000      -117.130000    309991.500000       122.865000    308903.400000         2.758653       107.796200       -17.736930       116.787900      -132.799800       118.376800       101.670800        59.969650         0.015335
1643124130.0000    308867.100000      -128.606500    309976.400000       111.396800    308911.500000        -8.722537       107.423300       -28.551780       116.933100      -144.269400       118.570400        90.347230        59.966730        -0.043716
1643124131.0000    308839.900000      -140.101200    309999.300000        99.890710    308843.800000       -20.228560       107.452700       -40.105670       115.730700      -155.222800       118.436400        79.359050        59.967210        -0.047379
1643124132.0000    308798.000000      -152.088000    309965.800000        87.910430    308887.900000       -32.210460       107.185600       -51.224960       115.925100      -166.667000       117.798500        68.253090        59.964760        -0.016937
1643124133.0000    308816.800000      -165.265400    309969.700000        74.737790    308912.200000       -45.382110       106.993400       -64.456360       115.752800       179.995300       117.074200        54.668280        59.963390         0.070267
1643124134.0000    308828.000000      -178.979700    309945.400000        61.030270    308906.900000       -59.085800       107.637400       -78.853290       116.697700       165.713100       117.834700        40.547770        59.961630         0.005493
1643124135.0000    308853.200000       166.937400    309941.700000        46.944990    308930.600000       -73.168630       107.493600       -92.518040       116.663700       152.036200       117.617700        26.726310        59.960270         0.017166
1643124136.0000    308843.700000       152.275400    309991.200000        32.289580    308983.900000       -87.837040       107.747400      -107.345400       116.563300       136.963400       117.895500        11.720530        59.960430         0.009384
1643124137.0000    308803.200000       138.450800    310026.300000        18.449800    308921.700000      -101.675600       107.586000      -122.393500       116.187100       122.344700       118.085900        -2.693970        59.961950        -0.012817
1643124138.0000    308831.400000       125.273900    309963.500000         5.282880    308928.800000      -114.834000       107.611300      -134.797800       116.616400       109.767700       118.142400       -15.540010        59.964070        -0.006866
1643124139.0000    308862.800000       112.358500    309961.800000        -7.631938    308941.800000      -127.742700       107.186900      -147.361200       116.595700        96.897170       117.706200       -28.530220        59.964270        -0.024490
1643124140.0000    308817.400000       100.001800    309926.800000       -19.989430    308906.900000      -140.105000       107.716500      -159.870400       116.070200        84.471000       117.808500       -40.838980        59.965370        -0.026093
1643124141.0000    308754.800000        87.843150    309967.200000       -32.144270    308924.800000      -152.278000       108.110600      -172.018200       116.536000        72.432890       117.570100       -52.677040        59.966300        -0.062027
1643124142.0000    308832.900000        76.249050    310025.200000       -43.747210    308941.800000      -163.872200       107.078900       176.215700       116.055600        60.864840       117.856900       -64.505910        59.968400         0.007324
1643124143.0000    308883.700000        64.956270    309976.000000       -55.046420    308937.600000      -175.153000       107.440600       164.600900       116.232700        49.482760       118.258600       -76.141080        59.969320        -0.010300
1643124144.0000    308866.700000        54.398750    309984.600000       -65.591560    308953.600000       174.289700       107.819100       153.780700       116.729100        38.401380       117.506300       -86.931290        59.971430         0.013046
1643124145.0000    308810.900000        44.524500    310009.500000       -75.464820    308951.500000       164.407000       107.177800       144.465300       116.109900        29.200300       117.540400       -95.848150        59.972420        -0.050125
1643124146.0000    308886.000000        34.854620    310006.400000       -85.144110    308927.800000       154.742000       107.689300       134.463400       115.955500        19.070350       118.144300      -106.139700        59.973200        -0.015335
1643124147.0000    308848.400000        25.396660    309961.300000       -94.595680    308927.600000       145.291000       107.479100       124.874700       116.406700         9.313924       118.064000      -115.876200        59.974370         0.032043
1643124148.0000    308890.000000        15.857760    310002.400000      -104.143700    308943.300000       135.744700       107.554600       115.473300       116.498500         0.130920       118.154100      -125.285700        59.973390         0.005035
1643124149.0000    308895.200000         6.699348    309949.200000      -113.295900    308946.900000       126.598700       107.915400       105.735000       117.054800        -9.756474       118.549900      -135.299000        59.975750        -0.015106
1643124150.0000    308852.000000        -1.845850    310000.800000      -121.843500    308912.800000       118.037400       108.241300        97.227650       116.908900       -18.103050       118.827100      -143.383000        59.976820        -0.037994
1643124151.0000    308885.900000        -9.547950    310090.300000      -129.547200    308999.400000       110.327600       108.554700        89.726500       116.071300       -25.580880       118.180900      -150.990500        59.980170        -0.016022
1643124152.0000    308890.400000       -16.326620    310014.100000      -136.318700    308970.900000       103.566600       107.760800        83.807630       116.664100       -31.927740       118.119600      -157.090700        59.981890         0.001144
1643124153.0000    308866.800000       -22.842680    309993.300000      -142.820700    309029.500000        97.057640       108.072000        77.184120       117.002400       -38.849850       118.198100      -164.055100        59.982680         0.025177
1643124154.0000    308938.500000       -28.905920    310037.800000      -148.890100    309045.900000        90.993070       107.811100        70.894640       117.188600       -44.952350       118.217800      -169.946100        59.984340         0.011215
1643124155.0000    308922.400000       -33.934510    310094.800000      -153.928400    309025.800000        85.951740       107.978400        65.839100       117.292600       -49.714210       118.446800      -174.976900        59.987510         0.036163
1643124156.0000    308851.000000       -38.207600    310026.200000      -158.198900    308971.400000        81.673300       108.576700        61.724020       117.353400       -53.695900       118.743900      -179.009300        59.989050        -0.003662
1643124157.0000    308891.700000       -41.908260    310027.500000      -161.912400    308928.300000        77.973750       108.044300        57.789600       117.241800       -57.492410       119.014000       177.120000        59.989570        -0.017624
1643124158.0000    308896.100000       -45.503270    310058.100000      -165.495000    309030.500000        74.383260       108.883800        54.305370       117.405800       -61.283410       118.752100       173.774100        59.991230         0.012817
1643124159.0000    308905.900000       -48.090990    309998.300000      -168.084400    308962.000000        71.803280       109.139300        51.019550       117.489000       -64.309020       119.668500       170.254100        59.993890        -0.027695
1643124160.0000    308883.400000       -49.611250    310063.300000      -169.602500    308994.400000        70.273530       109.290500        49.987550       117.789900       -65.860070       118.975900       169.180800        59.997990         0.030899
1643124161.0000    308947.300000       -50.714330    310062.600000      -170.702600    309052.600000        69.176770       108.730600        48.801300       117.607800       -66.682390       119.327500       168.266700        59.998540         0.030212
1643124162.0000    308899.100000       -51.077470    310048.300000      -171.060200    309050.800000        68.818560       108.638800        47.700290       117.669400       -67.955540       119.105100       167.044200        59.999650        -0.031586
1643124163.0000    308893.800000       -51.069790    310076.600000      -171.057700    309016.500000        68.816350       109.496300        47.791400       118.068600       -67.841440       119.606700       167.102700        60.001200        -0.019226
1643124164.0000    308891.200000       -51.062020    310063.600000      -171.053100    309030.900000        68.819200       109.244700        48.110630       116.943300       -67.739910       118.866700       167.269500        59.999070        -0.022659
1643124165.0000    308937.900000       -51.349650    310152.000000      -171.361900    308980.500000        68.515300       109.123300        46.813890       117.771000       -68.252900       119.701800       166.497600        59.998470         0.002518
1643124166.0000    308907.200000       -51.465110    310043.500000      -171.460000    308981.500000        68.423970       109.066200        46.961860       117.375200       -68.265050       119.735500       166.329500        60.001090         0.080109
1643124167.0000    308916.100000       -52.317980    310018.000000      -172.284500    309100.000000        67.586110       108.670900        46.928760       117.609700       -68.982870       118.770000       165.945900        59.996170         0.032730
1643124168.0000    308900.600000       -54.085950    310077.600000      -174.061900    309084.600000        65.807100       109.202000        45.095620       117.610800       -70.825490       119.546000       164.372800        59.994910         0.015564
1643124169.0000    308897.800000       -55.854860    310048.300000      -175.848300    309005.400000        64.033000       109.177900        42.553890       118.503300       -72.939740       120.149400       161.925700        59.995270         0.023117
1643124170.0000    308876.800000       -58.457610    310018.900000      -178.441500    309012.700000        61.434510       109.216900        40.759300       118.107800       -75.133490       119.264000       159.767600        59.991790        -0.046234
1643124171.0000    308918.800000       -61.546420    310042.600000       178.471800    309068.800000        58.351620       108.910600        37.035900       117.328600       -78.325010       119.115400       156.496900        59.990620         0.035248
1643124172.0000    308840.900000       -65.327950    309951.800000       174.691100    308950.700000        54.568280       109.026600        32.622780       117.530600       -83.141650       119.118500       151.985100        59.986820        -0.050812
1643124173.0000    308841.500000       -70.218980    310016.300000       169.794400    308985.500000        49.666890       108.980100        28.629750       117.508400       -86.979920       119.070700       147.960400        59.985260         0.012131
1643124174.0000    308931.700000       -75.796280    310081.400000       164.214300    309036.900000        44.095380       107.139900        22.478230       115.992500       -92.646790       118.384900       141.719500        59.983390        -0.001831
1643124175.0000    308845.300000       -82.594520    310021.900000       157.416000    308976.300000        37.290450       108.324900        15.769520       117.167200       -99.627520       118.946000       135.034100        59.979400         0.003204
1643124176.0000    308820.800000       -90.117210    309991.100000       149.904000    308991.900000        29.773370       109.469100         7.861877       117.226700      -107.903900       119.362800       127.571400        59.979520         0.034103
1643124177.0000    308898.300000       -98.103680    310034.000000       141.902600    309002.300000        21.783820       108.259300        -0.621259       117.141300      -115.810900       119.051500       118.546900        59.977480         0.029526
1643124178.0000    308937.600000      -105.972700    310029.300000       134.032000    309008.000000        13.922630       108.376800        -8.154768       117.258500      -123.622800       119.219300       111.138500        59.978030         0.017166
1643124179.0000    308819.400000      -114.458800    309959.800000       125.576200    309039.600000         5.444283       108.260900       -15.561400       117.204000      -131.524500       118.423300       103.607600        59.974750         0.012589
