Terminal: LT 500  TIANGUA II - ACARAU III C1
Tensão base: 500 kV
SOC inicial: 1643124120
SOC final: 1643124179
Taxa: 1 fasores/s
Total de frames faltantes: - 

Tempo_(SOC)           VA_mod_(V)     VA_ang_(graus)     VB_mod_(V)     VB_ang_(graus)     VC_mod_(V)     VC_ang_(graus)     IA_mod_(A)     IA_ang_(graus)     IB_mod_(A)     IB_ang_(graus)     IC_mod_(A)     IC_ang_(graus)     Frequência        Delta_Freq     Faltante
1643124120.0000    312255.000000       -22.617780    313571.300000      -142.578800    311846.100000        97.338460        54.464650      -120.009000        48.884620       122.154500        50.908210         8.291235        59.974990        -0.014648
1643124121.0000    312199.700000       -31.638810    313517.500000      -151.599500    311807.600000        88.314430        54.842960      -128.068600        49.373390       113.978500        51.115720         0.003240        59.973740        -0.022888
1643124122.0000    312195.800000       -41.067270    313543.300000      -161.025800    311805.600000        78.882850        54.155030      -137.933300        48.666630       104.509300        50.717110        -9.470876        59.973590         0.012589
1643124123.0000    312217.800000       -51.042830    313598.200000      -171.011300    311787.800000        68.899020        54.597750      -147.188200        48.219570        95.321700        51.192110       -19.469390        59.971130        -0.008926
1643124124.0000    312180.300000       -61.432840    313598.300000       178.597100    311766.800000        58.500330        54.989630      -158.309400        48.742860        83.997910        51.415050       -29.816720        59.971030        -0.009155
1643124125.0000    312173.900000       -72.007870    313453.300000       168.035500    311754.800000        47.958910        54.542960      -168.759700        49.304830        73.960110        51.673320       -40.690300        59.970020         0.000000
1643124126.0000    312204.100000       -83.166090    313493.000000       156.856600    311705.200000        36.783860        54.300320       179.664700        49.084980        62.675640        51.666680       -52.034180        59.968710         0.018768
1643124127.0000    312144.100000       -94.738010    313520.000000       145.291700    311715.200000        25.209100        54.720550       168.246700        48.750290        50.581130        51.835840       -63.353010        59.966230        -0.019684
1643124128.0000    312225.500000      -106.255200    313492.900000       133.765300    311707.300000        13.695250        54.972160       156.154300        50.008190        38.521780        52.205890       -75.758000        59.969550         0.012360
1643124129.0000    312225.300000      -117.335600    313526.500000       122.685600    311716.100000         2.613483        54.562170       145.058100        49.102420        27.851940        51.328570       -86.686010        59.969070        -0.010529
1643124130.0000    312156.900000      -128.812700    313488.500000       111.216200    311708.900000        -8.864007        54.936090       133.879100        49.231080        16.529140        51.640040       -98.289600        59.966990        -0.024261
1643124131.0000    312140.800000      -140.305800    313517.700000        99.709500    311642.400000       -20.370860        54.877940       122.613400        49.102310         5.454781        51.901810      -109.615100        59.967740        -0.028381
1643124132.0000    312115.900000      -152.297200    313496.200000        87.726170    311668.800000       -32.358160        54.101420       111.430800        48.186120        -6.443243        51.321990      -120.328400        59.965500         0.011215
1643124133.0000    312135.800000      -165.473700    313481.900000        74.555210    311693.300000       -45.528410        54.344570        98.256870        48.911040       -19.282140        50.985130      -133.473900        59.962640         0.031815
1643124134.0000    312125.200000      -179.184200    313458.200000        60.852860    311706.500000       -59.231000        55.341470        84.866010        49.179760       -33.368050        51.974870      -147.549400        59.961920         0.005035
1643124135.0000    312162.900000       166.730200    313429.100000        46.763190    311705.100000       -73.310020        54.410080        70.428570        49.055370       -47.310150        51.570780      -161.938700        59.959860         0.005264
1643124136.0000    312149.300000       152.069100    313530.400000        32.111600    311781.000000       -87.981960        54.828770        55.544050        48.814690       -61.919010        50.825740      -176.065900        59.960710         0.020142
1643124137.0000    312106.400000       138.248000    313513.000000        18.275240    311692.600000      -101.819300        55.369540        40.816390        49.090970       -77.083960        51.949520       169.509900        59.962140         0.000916
1643124138.0000    312158.000000       125.069700    313458.900000         5.104394    311708.300000      -114.978100        54.505800        28.480020        48.623540       -89.604850        51.214750       155.913400        59.963850        -0.014191
1643124139.0000    312180.100000       112.151800    313464.900000        -7.810392    311755.100000      -127.888300        54.517190        15.547180        49.008670      -102.680800        51.056580       143.088200        59.964240        -0.041656
1643124140.0000    312135.000000        99.794940    313426.100000       -20.171280    311697.200000      -140.247500        54.596080         2.650438        48.995580      -114.866400        51.542430       130.345600        59.964840        -0.039368
1643124141.0000    312066.000000        87.638370    313497.500000       -32.322060    311726.800000      -152.421900        55.213250        -9.232339        48.791410      -127.238800        51.364010       118.776200        59.966630        -0.048981
1643124142.0000    312189.300000        76.046240    313560.600000       -43.925460    311747.000000      -164.015600        54.087960       -20.625730        48.175060      -138.075300        50.577550       106.994900        59.969010         0.038223
1643124143.0000    312202.700000        64.751420    313498.100000       -55.223000    311721.300000      -175.293900        54.807500       -32.149200        48.786940      -149.216100        51.370880        95.713180        59.969640        -0.001373
1643124144.0000    312201.900000        54.196530    313515.500000       -65.767270    311767.800000       174.149600        54.728930       -42.723390        48.574850      -161.135100        51.044740        84.791020        59.971650         0.024719
1643124145.0000    312154.400000        44.317540    313542.500000       -75.644130    311769.200000       164.262700        53.814920       -52.207980        47.822010      -170.475100        51.074020        75.967740        59.972460        -0.051041
1643124146.0000    312202.000000        34.650610    313523.200000       -85.324290    311727.800000       154.600300        54.441260       -62.486330        48.569270      -179.942900        51.650040        65.575750        59.972740        -0.030441
1643124147.0000    312152.900000        25.195300    313459.500000       -94.773510    311721.700000       145.149200        55.122070       -71.784110        48.690570       169.999800        51.580130        55.710530        59.974360         0.039368
1643124148.0000    312206.700000        15.654380    313524.900000      -104.323900    311718.900000       135.599000        54.269700       -81.949210        48.953420       160.196400        50.758370        46.334250        59.973650         0.012589
1643124149.0000    312215.600000         6.497616    313492.900000      -113.471500    311727.800000       126.461700        54.973820       -91.553430        49.291190       151.341900        51.556060        36.763440        59.976150         0.008698
1643124150.0000    312170.700000        -2.047853    313519.900000      -122.021800    311723.600000       117.895500        55.034940       -99.791850        49.806900       142.458200        51.951500        28.561000        59.976750        -0.034332
1643124151.0000    312243.700000        -9.754439    313646.400000      -129.724300    311817.200000       110.183100        54.882660      -107.522200        48.171460       134.588600        50.931920        20.561990        59.980110        -0.036163
1643124152.0000    312223.700000       -16.535800    313562.500000      -136.502800    311783.700000       103.416000        54.226130      -113.983800        48.460130       128.388500        51.258290        14.861430        59.982020         0.006866
1643124153.0000    312206.400000       -23.050860    313536.800000      -142.999600    311871.400000        96.910610        54.299140      -120.169700        48.889410       122.105700        51.201030         7.776112        59.982930         0.034790
1643124154.0000    312308.100000       -29.111610    313605.200000      -149.071100    311923.800000        90.849780        54.069030      -126.531900        48.704270       115.386100        50.557410         0.998657        59.984670         0.034103
1643124155.0000    312284.500000       -34.139880    313659.500000      -154.109000    311865.300000        85.805630        54.475600      -131.775700        48.722400       110.558800        51.004770        -3.575026        59.987600         0.032959
1643124156.0000    312189.600000       -38.419610    313585.500000      -158.385000    311784.700000        81.524210        55.477120      -135.555800        49.375960       106.260600        51.591930        -8.319673        59.989120         0.004578
1643124157.0000    312222.100000       -42.116580    313569.200000      -162.094800    311754.300000        77.828370        54.981990      -139.409600        49.315100       102.591800        51.413590       -11.971290        59.989650        -0.025406
1643124158.0000    312246.800000       -45.713820    313611.500000      -165.677500    311844.900000        74.232690        54.947870      -143.320600        48.987040        98.947590        51.270760       -14.870710        59.991250         0.015335
1643124159.0000    312235.800000       -48.296800    313547.400000      -168.266700    311777.500000        71.657330        55.914530      -146.117700        49.491920        95.554410        51.910580       -18.545490        59.994250        -0.016937
1643124160.0000    312208.400000       -49.818910    313590.500000      -169.786200    311817.700000        70.123170        55.646410      -147.470600        49.552980        94.306980        52.661510       -19.751230        59.997540         0.008011
1643124161.0000    312312.300000       -50.925990    313641.800000      -170.883900    311911.400000        69.030180        54.966540      -148.759500        48.949070        93.492000        51.323120       -20.433490        59.998840         0.038681
1643124162.0000    312272.600000       -51.282140    313606.300000      -171.241000    311901.800000        68.673550        55.068590      -149.240100        49.620860        92.175380        50.996300       -21.653850        59.999530        -0.030441
1643124163.0000    312239.400000       -51.275190    313610.900000      -171.236000    311875.400000        68.671600        55.512540      -149.277500        49.362850        92.583640        51.939150       -21.594060        60.000930        -0.029526
1643124164.0000    312237.800000       -51.270710    313631.400000      -171.230500    311869.000000        68.673540        54.915610      -149.759900        49.265540        92.304370        51.180150       -21.504910        59.999350        -0.019226
1643124165.0000    312287.900000       -51.556240    313707.700000      -171.541000    311823.300000        68.372090        55.434650      -150.014900        49.198300        91.916890        51.771840       -22.226480        59.998490         0.007553
1643124166.0000    312240.900000       -51.669330    313591.200000      -171.636800    311808.500000        68.279010        55.690900      -149.698200        49.649000        92.363850        52.248660       -21.823160        60.001540         0.097961
1643124167.0000    312244.000000       -52.526260    313590.800000      -172.464600    311950.700000        67.441540        55.007280      -149.907700        48.835390        90.921740        51.413240       -22.646540        59.996270         0.030899
1643124168.0000    312238.000000       -54.293280    313609.900000      -174.242400    311919.000000        65.660000        55.593310      -152.011000        49.282890        89.336430        51.694430       -24.000590        59.995080         0.017853
1643124169.0000    312240.300000       -56.061020    313583.600000      -176.029200    311815.000000        63.889440        56.449470      -153.926700        50.445340        87.734380        52.598440       -26.737070        59.995340         0.030212
1643124170.0000    312223.800000       -58.666810    313560.500000      -178.625700    311835.900000        61.289620        55.384560      -156.002300        49.899960        85.323860        52.438910       -28.238480        59.991710        -0.045776
1643124171.0000    312295.000000       -61.751830    313605.300000       178.292000    311900.100000        58.206170        55.387760      -159.799900        49.790380        82.350620        52.174570       -32.082390        59.991000         0.054703
1643124172.0000    312139.400000       -65.529680    313458.600000       174.514600    311771.600000        54.425960        56.471480      -164.076500        50.270310        78.129590        53.062550       -36.481820        59.986690        -0.050354
1643124173.0000    312157.500000       -70.426130    313547.100000       169.613800    311792.200000        49.519070        55.794960      -168.298200        49.841620        73.550250        52.222210       -40.043240        59.985570         0.020828
1643124174.0000    312311.700000       -75.998800    313670.600000       164.033300    311904.400000        43.951910        54.626710      -174.241000        48.585600        67.403590        51.224870       -46.399960        59.983620         0.002747
1643124175.0000    312183.000000       -82.798520    313561.100000       157.235900    311791.300000        37.145760        55.704160       178.916400        49.559560        60.970370        52.618890       -53.232710        59.979720         0.032501
1643124176.0000    312148.600000       -90.320920    313524.500000       149.727800    311806.000000        29.632640        56.403280       171.051300        50.263500        53.175960        52.447770       -60.915700        59.979280         0.020828
1643124177.0000    312261.700000       -98.307210    313596.800000       141.726700    311832.500000        21.643220        55.158380       162.931900        49.383950        44.767230        51.752510       -69.242050        59.977540         0.007324
1643124178.0000    312316.800000      -106.178500    313577.900000       133.850200    311835.900000        13.777850        55.253990       155.251200        49.340480        37.839450        52.023490       -76.856190        59.977210        -0.021057
1643124179.0000    312159.100000      -114.666200    313488.400000       125.394800    311830.200000         5.298934        55.576300       147.184800        49.514230        29.329170        51.795380       -84.672870        59.974700         0.005493
