Terminal: LT 500  COLINAS - MIRACEMA C3
Tensão base: 500 kV
SOC inicial: 1643124120
SOC final: 1643124179
Taxa: 1 fasores/s
Total de frames faltantes: - 

Tempo_(SOC)           VA_mod_(V)     VA_ang_(graus)     VB_mod_(V)     VB_ang_(graus)     VC_mod_(V)     VC_ang_(graus)     IA_mod_(A)     IA_ang_(graus)     IB_mod_(A)     IB_ang_(graus)     IC_mod_(A)     IC_ang_(graus)     Frequência        Delta_Freq     Faltante
1643124120.0000    298524.700000       -18.382330    300002.300000      -138.212600    297290.100000       101.450100       971.698400        -6.342752       942.591600      -125.130500       973.922000       115.542800        59.974410        -0.011444
1643124121.0000    298454.600000       -27.390190    299935.000000      -147.217400    297223.600000        92.443140       972.543200       -15.345090       943.062600      -134.117000       974.905500       106.542900        59.973800        -0.036392
1643124122.0000    298365.000000       -36.799670    299871.600000      -156.628100    297131.900000        83.028820       973.803200       -24.774740       944.696700      -143.513300       976.147100        97.121480        59.973160         0.001831
1643124123.0000    298350.000000       -46.784790    299845.800000      -166.615900    297098.600000        73.042570       975.325600       -34.770420       945.465200      -153.504000       977.950600        87.106750        59.971830         0.018311
1643124124.0000    298475.200000       -57.199970    299965.400000      -177.027400    297239.700000        62.626240       970.659500       -45.098700       941.273300      -163.864900       973.064300        76.784460        59.970670        -0.046463
1643124125.0000    298315.000000       -67.752770    299814.300000       172.420000    297100.100000        52.078040       974.297700       -55.717350       944.900300      -174.476200       977.059000        66.154080        59.969800         0.007324
1643124126.0000    298348.700000       -78.903720    299813.000000       161.266200    297086.300000        40.928940       974.882000       -66.863910       945.272500       174.377800       977.340000        55.038460        59.968420        -0.006409
1643124127.0000    298358.600000       -90.480860    299849.700000       149.689200    297126.800000        29.348590       974.505900       -78.436970       945.032900       162.798400       976.897900        43.451300        59.966040        -0.032501
1643124128.0000    298625.200000      -102.029200    300105.000000       138.140500    297378.600000        17.799010       968.220500       -89.910790       938.702100       151.353500       970.941500        32.006400        59.968970         0.005035
1643124129.0000    298429.800000      -113.086800    299917.500000       127.085400    297172.900000         6.741655       974.234500      -101.060700       944.727900       140.170200       976.303200        20.829750        59.969270        -0.013504
1643124130.0000    298320.400000      -124.554200    299815.300000       115.615700    297088.400000        -4.725132       973.656100      -112.496400       944.685100       128.727500       976.445200         9.400941        59.966640        -0.034790
1643124131.0000    298217.700000      -136.044600    299736.300000       104.125500    296977.900000       -16.217260       974.930200      -124.023500       945.292100       117.218300       977.403400        -2.136308        59.967050        -0.059509
1643124132.0000    298052.400000      -148.000100    299556.200000        92.171950    296839.100000       -28.172120       980.419500      -136.086200       950.896100       105.123400       982.743300       -14.194910        59.964740        -0.022430
1643124133.0000    298108.300000      -161.164500    299599.300000        79.005870    296860.700000       -41.335860       978.945700      -149.152400       949.370800        92.066650       981.403100       -27.263350        59.962930         0.030899
1643124134.0000    298288.900000      -174.901200    299759.600000        65.269140    297041.500000       -55.066970       974.164200      -162.837400       944.693000        78.410490       976.273100       -40.938590        59.961260        -0.018539
1643124135.0000    298211.400000       171.022000    299657.000000        51.191960    296945.700000       -69.143640       978.484800      -177.048200       948.441000        64.207980       980.777300       -55.150660        59.959370        -0.015106
1643124136.0000    298358.600000       156.346700    299853.000000        36.513690    297108.200000       -83.823330       974.557200       168.405700       945.083600        49.652960       977.214600       -69.681780        59.959470        -0.015106
1643124137.0000    298374.300000       142.468400    299872.700000        22.637640    297127.400000       -97.704730       976.131400       154.390400       946.670500        35.631240       978.435000       -83.690350        59.962070        -0.007324
1643124138.0000    298249.900000       129.324200    299722.500000         9.496290    296996.100000      -110.845700       981.015300       141.161100       951.463000        22.423420       983.558400       -96.942320        59.964090         0.023575
1643124139.0000    298254.700000       116.419100    299750.500000        -3.407240    297034.600000      -123.752300       978.732800       128.337200       949.254800         9.612515       981.710300      -109.759300        59.964810         0.005722
1643124140.0000    298162.500000       104.049000    299664.400000       -15.774360    296949.100000      -136.118300       982.136600       115.840400       952.069500        -2.894349       984.712600      -122.241000        59.965890         0.000458
1643124141.0000    298191.100000        91.893780    299710.800000       -27.931010    297004.700000      -148.277200       979.797600       103.801900       949.772900       -14.982530       981.793400      -134.294600        59.965770        -0.038910
1643124142.0000    298182.300000        80.298840    299691.900000       -39.527950    296973.700000      -159.875200       982.276800        92.086860       952.119200       -26.678340       984.303300      -145.985400        59.968100        -0.008926
1643124143.0000    298307.400000        68.993820    299832.500000       -50.831290    297111.700000      -171.173800       979.927600        80.869800       949.657800       -37.871390       981.629000      -157.195700        59.969540         0.004349
1643124144.0000    298335.400000        58.431390    299828.300000       -61.390400    297148.800000       178.262500       978.043500        70.303520       947.389500       -48.463080       980.014300      -167.739600        59.971260        -0.006409
1643124145.0000    298177.300000        48.569210    299688.900000       -71.252160    297013.000000       168.401200       982.116700        60.363850       952.330000       -58.398660       984.330300      -177.713900        59.971980        -0.068436
1643124146.0000    298266.400000        38.869210    299734.500000       -80.957500    297044.200000       158.702800       981.451700        50.683110       951.401700       -68.062260       983.496600       172.599000        59.972500        -0.035477
1643124147.0000    298218.200000        29.425950    299723.400000       -90.407790    296966.900000       149.252000       984.118800        41.180300       954.705700       -77.601500       986.547500       163.050200        59.974660         0.036392
1643124148.0000    298233.700000        19.879670    299736.800000       -99.954120    296990.700000       139.707200       983.244400        31.668990       954.183000       -87.069120       985.911900       153.548300        59.973800         0.030212
1643124149.0000    298425.300000        10.703020    299896.400000      -109.130200    297173.200000       130.536000       978.020100        22.571860       949.084400       -96.181530       980.874100       144.435100        59.975830         0.020599
1643124150.0000    298426.400000         2.163000    299911.600000      -117.671900    297167.400000       121.990200       979.051500        14.012400       949.740900      -104.722600       981.793800       135.889900        59.977070        -0.008240
1643124151.0000    298510.800000        -5.532046    299989.700000      -125.371300    297239.000000       114.292600       975.248500         6.360811       946.136300      -112.410900       977.898900       128.229000        59.979740        -0.007782
1643124152.0000    298366.800000       -12.278640    299840.600000      -132.116200    297109.800000       107.548900       979.088900        -0.420503       950.310200      -119.191500       981.978000       121.461300        59.981640        -0.005493
1643124153.0000    298444.100000       -18.806550    299938.700000      -138.634800    297206.800000       101.025200       976.166300        -6.892578       947.310100      -125.649900       978.571800       114.987800        59.982110        -0.012360
1643124154.0000    298541.000000       -24.880770    300016.600000      -144.712000    297282.700000        94.949020       976.558800       -12.946570       946.971400      -131.710900       978.545200       108.925900        59.983940        -0.015335
1643124155.0000    298601.100000       -29.908930    300077.400000      -149.743600    297330.800000        89.919940       975.751300       -17.999760       946.378800      -136.773800       977.816300       103.881800        59.987310         0.022202
1643124156.0000    298476.200000       -34.185800    299974.500000      -154.021800    297229.700000        85.639290       975.857900       -22.248520       947.099600      -141.025300       978.294100        99.615070        59.988360        -0.025177
1643124157.0000    298406.300000       -37.898180    299909.500000      -157.733400    297175.900000        81.930950       977.789900       -26.016380       948.235000      -144.818600       979.473100        95.847040        59.989750        -0.006409
1643124158.0000    298525.700000       -41.485630    299995.700000      -161.318400    297262.400000        78.342020       974.890100       -29.496460       945.717600      -148.270500       977.062000        92.358960        59.990830        -0.019226
1643124159.0000    298679.300000       -44.101590    300152.100000      -163.932000    297422.800000        75.731420       969.864400       -32.048290       941.267600      -150.814800       972.680100        89.825130        59.993410        -0.048065
1643124160.0000    298620.300000       -45.604650    300098.300000      -165.438200    297351.100000        74.220590       974.699000       -33.685460       945.857000      -152.487600       977.252500        88.169480        59.996890        -0.008698
1643124161.0000    298741.700000       -46.708150    300210.900000      -166.542400    297468.500000        73.122020       972.345300       -34.773200       943.012700      -153.526500       974.599700        87.115460        59.997710         0.005035
1643124162.0000    298715.400000       -47.106320    300171.700000      -166.937300    297459.800000        72.728770       973.375600       -35.246640       944.977800      -154.027100       975.850200        86.607900        59.998490        -0.082855
1643124163.0000    298684.100000       -47.093520    300160.200000      -166.928600    297413.300000        72.735820       973.523400       -35.207810       944.675000      -154.016800       975.459500        86.641520        60.000410        -0.057449
1643124164.0000    298602.800000       -47.077260    300079.100000      -166.911900    297327.000000        72.753980       975.694100       -35.182150       946.714100      -153.975700       978.052700        86.663350        59.998870        -0.038910
1643124165.0000    298753.600000       -47.404260    300263.200000      -167.245300    297461.500000        72.418260       970.397300       -35.423790       941.734300      -154.217200       972.894300        86.395610        60.000590         0.135727
1643124166.0000    298603.000000       -47.494110    300141.800000      -167.324600    297384.900000        72.329660       973.939500       -35.634410       943.771400      -154.462800       975.220700        86.265360        60.002300         0.074158
1643124167.0000    298551.100000       -48.335480    299999.800000      -168.160300    297309.700000        71.505290       975.742300       -36.470150       946.353600      -155.311900       978.138500        85.374660        59.994870        -0.032043
1643124168.0000    298758.800000       -50.104540    300234.400000      -169.926500    297544.200000        69.731920       968.329100       -38.127390       938.426900      -156.910500       969.878500        83.788250        59.993920        -0.047150
1643124169.0000    298809.200000       -51.909330    300289.600000      -171.737400    297550.300000        67.923070       967.212100       -39.927930       937.586100      -158.699000       969.203100        81.959880        59.994450        -0.010757
1643124170.0000    298701.900000       -54.483870    300153.900000      -174.306400    297473.900000        65.352390       969.739500       -42.471690       939.635300      -161.275200       970.820600        79.423380        59.991390        -0.050125
1643124171.0000    298723.800000       -57.587070    300185.800000      -177.409600    297481.000000        62.250660       969.699000       -45.607490       939.887600      -164.400700       971.395700        76.306070        59.991280         0.050812
1643124172.0000    298623.700000       -61.410690    300057.900000       178.769900    297411.000000        58.431060       971.073500       -49.441180       941.936600      -168.235400       973.378700        72.450380        59.986730        -0.054703
1643124173.0000    298596.200000       -66.260560    300056.800000       173.916800    297390.500000        53.574260       970.258300       -54.241540       940.503200      -173.045300       971.879000        67.639640        59.985590         0.008240
1643124174.0000    298518.700000       -71.847710    299977.900000       168.328100    297298.000000        47.986990       972.566700       -59.940570       942.798300      -178.726700       974.721900        61.950830        59.983050        -0.024033
1643124175.0000    298604.800000       -78.651690    300073.600000       161.522900    297373.300000        41.185700       970.949700       -66.653520       941.181200       174.572300       972.996100        55.266190        59.979850         0.037537
1643124176.0000    298640.700000       -86.175990    300131.800000       154.002700    297441.300000        33.659530       969.939000       -74.157680       940.377300       167.063000       972.153100        47.741180        59.979010        -0.005035
1643124177.0000    298692.800000       -94.197790    300209.500000       145.979600    297516.900000        25.633690       968.568800       -82.143220       938.433600       159.114200       970.711700        39.810270        59.977810         0.014648
1643124178.0000    298753.800000      -102.060100    300205.700000       138.114700    297529.900000        17.777670       968.280000       -90.028690       938.498000       151.193700       970.166600        31.878000        59.978810         0.031815
1643124179.0000    298430.700000      -110.498900    299953.000000       129.679700    297256.400000         9.332400       974.701800       -98.583550       944.586100       142.657000       976.663400        23.334700        59.974590        -0.017624
