Terminal: LT 500  RIO NOVO SUL - MUTUM C1
Tensão base: 500 kV
SOC inicial: 1643124120
SOC final: 1643124179
Taxa: 1 fasores/s
Total de frames faltantes: - 

Tempo_(SOC)           VA_mod_(V)     VA_ang_(graus)     VB_mod_(V)     VB_ang_(graus)     VC_mod_(V)     VC_ang_(graus)     IA_mod_(A)     IA_ang_(graus)     IB_mod_(A)     IB_ang_(graus)     IC_mod_(A)     IC_ang_(graus)     Frequência        Delta_Freq     Faltante
1643124120.0000    308986.400000       -76.852960    309298.500000       163.242300    308525.000000        43.365200       118.355900       150.825900       129.218500        29.336610       113.767600       -93.416380        59.974210        -0.028381
1643124121.0000    308941.600000       -85.896350    309271.000000       154.199200    308509.600000        34.315870       118.138600       141.325700       130.733000        19.756250       114.082700      -102.432500        59.973520        -0.028610
1643124122.0000    308910.800000       -95.422300    309199.000000       144.670900    308435.900000        24.798720       117.999100       131.474700       130.523200        10.479890       114.607800      -112.662900        59.973750         0.017166
1643124123.0000    308509.600000      -105.538000    308866.300000       134.552800    308061.800000        14.673960       118.695300       121.383900       130.531500         0.570703       114.142700      -122.536500        59.971000        -0.023575
1643124124.0000    308591.600000      -115.810600    308950.300000       124.281600    308147.600000         4.404413       118.542100       110.758400       131.345900       -10.401900       114.625600      -132.870300        59.971390         0.022430
1643124125.0000    308443.500000      -126.466700    308766.300000       113.640500    308032.900000        -6.240673       120.237100       101.111300       132.394000       -20.076800       115.328700      -142.958800        59.968790        -0.031815
1643124126.0000    308655.300000      -137.545200    308982.200000       102.542700    308175.100000       -17.331770       118.955400        89.242770       131.437100       -31.628540       115.746700      -154.631900        59.968400         0.031128
1643124127.0000    308676.100000      -149.173700    308986.800000        90.926410    308253.200000       -28.953230       121.063800        77.065190       133.690800       -43.628860       116.683900      -166.739400        59.967850         0.018539
1643124128.0000    308758.100000      -160.461500    309054.200000        79.643390    308316.900000       -40.236230       119.172800        66.518370       132.677500       -55.188240       115.727800      -178.144500        59.969730         0.003204
1643124129.0000    308831.800000      -171.780600    309159.200000        68.303830    308325.300000       -51.567250       121.239200        54.914680       132.867300       -65.933390       117.204600       171.268700        59.969990         0.027924
1643124130.0000    308771.300000       176.860700    309131.700000        56.960330    308355.200000       -62.926250       118.125100        44.325860       130.538500       -77.404350       114.077800       160.322800        59.967910         0.016022
1643124131.0000    308762.500000       165.384500    309097.100000        45.479560    308311.600000       -74.401480       117.858900        33.560820       130.317900       -88.123990       115.602300       149.242300        59.966550        -0.009155
1643124132.0000    308558.300000       153.207300    308897.200000        33.307150    308140.800000       -86.576400       121.599200        20.609380       134.638000      -101.228300       117.943200       136.279200        59.964390        -0.036392
1643124133.0000    308837.600000       140.139700    309221.600000        20.237410    308437.400000       -99.648990       118.731800         7.564155       130.403800      -113.831900       113.897700       123.389800        59.963620         0.039597
1643124134.0000    308807.600000       126.530500    309172.300000         6.624935    308378.500000      -113.260100       117.304700        -6.530304       130.268200      -127.401200       114.373100       109.961400        59.962200        -0.005493
1643124135.0000    308740.300000       112.290100    309081.300000        -7.618801    308286.200000      -127.496700       117.581500       -20.110130       130.602900      -141.562900       114.981400        95.996190        59.958940        -0.006409
1643124136.0000    308966.700000        97.810910    309295.300000       -22.089440    308531.700000      -141.970600       118.276400       -34.683080       130.112800      -156.567400       113.757300        81.211140        59.960770        -0.004578
1643124137.0000    308824.500000        84.055500    309152.700000       -35.856580    308341.800000      -155.733000       119.945200       -49.206240       132.130500      -170.169300       116.733200        66.636490        59.961590        -0.001602          *
1643124138.0000    308855.600000        70.456170    309203.300000       -49.453830    308431.300000      -169.333800       122.311600       -63.270150       134.702300       175.489800       118.919700        53.178220        59.962730        -0.004349
1643124139.0000    308708.600000        57.653630    309063.300000       -62.250620    308309.800000       177.865200       121.767000       -76.704960       133.096200       162.010200       117.520600        39.388900        59.966210         0.031128
1643124140.0000    308626.400000        44.985470    308942.200000       -74.921200    308209.700000       165.202400       123.992700       -89.920060       136.142300       149.054600       119.947400        26.560680        59.964350        -0.013275
1643124141.0000    308591.000000        32.970690    308954.200000       -86.934530    308190.900000       153.183400       123.449700      -101.129300       135.763300       137.681400       120.051500        14.923870        59.969380         0.161362
1643124142.0000    308597.300000        21.218850    308944.400000       -98.685250    308204.400000       141.432200       125.502200      -113.134900       137.888300       125.885300       122.347800         2.686175        59.965360        -0.067062
1643124143.0000    308533.100000        10.055050    308863.900000      -109.840600    308154.400000       130.276400       126.165400      -124.538700       138.803600       114.356100       122.275600        -8.519988        59.969890        -0.051270
1643124144.0000    308667.600000        -0.522260    309011.100000      -120.424800    308255.100000       119.697500       124.496400      -134.961400       137.509400       103.869200       120.677800       -18.945800        59.972430         0.051270
1643124145.0000    308765.200000       -10.486980    309106.000000      -130.393000    308334.700000       109.729200       123.610300      -144.059700       135.931500        95.094700       119.756600       -27.588080        59.973260        -0.050354
1643124146.0000    308713.600000       -20.170470    309043.000000      -140.074200    308311.000000       100.049700       124.761800      -153.220900       135.303700        85.495620       118.719700       -36.659400        59.974400         0.004807
1643124147.0000    308546.300000       -29.659170    308904.000000      -149.566300    308122.200000        90.554160       124.377600      -163.032000       134.674400        75.903630       119.867500       -46.827220        59.973160        -0.020599
1643124148.0000    308685.500000       -39.132990    308995.300000      -159.038900    308240.300000        81.088820       122.760400      -172.213700       133.587800        66.229680       118.318600       -56.258910        59.975460         0.074615
1643124149.0000    308778.400000       -48.108020    309120.600000      -168.018400    308336.400000        72.108190       123.606300       179.389600       134.153200        57.768260       118.752300       -65.055510        59.976350         0.033646
1643124150.0000    308958.800000       -56.595200    309248.300000      -176.499200    308515.600000        63.629610       123.179500       170.047600       134.672300        48.714290       118.786500       -74.160390        59.979170         0.036163
1643124151.0000    308725.600000       -64.245100    309099.700000       175.854100    308344.800000        55.968560       123.745800       161.062800       136.828400        40.254780       119.830900       -82.283580        59.980630         0.025406
1643124152.0000    308643.700000       -71.211600    309014.100000       168.881100    308243.100000        49.001700       124.957400       154.242100       137.152300        33.036020       121.301300       -89.602350        59.981530        -0.004578
1643124153.0000    308625.700000       -77.670390    308983.200000       162.420400    308203.900000        42.539910       125.109000       147.805700       135.756800        26.481120       120.503200       -95.984990        59.982910         0.027924
1643124154.0000    308873.300000       -83.534000    309236.200000       156.554300    308439.400000        36.675180       122.887600       141.329600       135.105500        19.983310       119.371300      -102.676200        59.985500         0.013275
1643124155.0000    308815.300000       -88.553460    309131.900000       151.538900    308361.400000        31.663640       124.850700       136.182100       135.587800        15.083430       120.389000      -107.756400        59.986150         0.018082
1643124156.0000    308802.700000       -92.939810    309133.000000       147.150100    308357.300000        27.267870       124.708800       132.068400       135.542000        10.904100       118.675200      -111.858900        59.989000         0.011444
1643124157.0000    308826.500000       -96.755620    309168.900000       143.339500    308400.800000        23.457280       123.173100       128.311500       135.992700         7.521000       120.296700      -115.447200        59.988660         0.000458
1643124158.0000    309273.100000       -99.961050    309607.300000       140.133400    308827.700000        20.249230       120.344300       125.952400       131.998000         5.361835       116.519100      -117.584300        59.992230        -0.020828
1643124159.0000    309102.300000      -102.515800    309492.800000       137.582800    308696.900000        17.691050       121.572700       123.164000       134.083900         2.385743       117.729400      -120.119400        59.994200         0.008698
1643124160.0000    309018.100000      -104.216900    309372.100000       135.873400    308594.300000        15.992880       121.713300       121.572700       133.403000         0.453985       117.857000      -122.417200        59.996320         0.021057
1643124161.0000    309170.500000      -105.166100    309538.600000       134.925500    308762.800000        15.043760       120.851800       119.795200       133.439100        -1.034962       117.839700      -123.755300        59.998170         0.000458
1643124162.0000    309168.000000      -105.661200    309537.200000       134.428900    308733.400000        14.546510       122.329400       118.574100       135.241200        -2.385031       119.225900      -125.012200        59.999160        -0.029755
1643124163.0000    309144.400000      -105.614200    309505.300000       134.483200    308731.300000        14.601550       121.617400       119.824800       134.162700        -1.630393       119.150000      -124.400200        59.999570         0.016937
1643124164.0000    309192.800000      -105.649600    309530.800000       134.444800    308746.600000        14.564170       122.719700       119.416600       134.388800        -1.730550       118.463600      -124.297000        59.999770         0.018539
1643124165.0000    309173.500000      -105.727600    309514.400000       134.364400    308720.700000        14.483700       119.379100       120.307400       130.472300        -1.297291       116.308900      -123.804600        59.999310         0.032501
1643124166.0000    309166.100000      -105.981000    309480.800000       134.104000    308663.600000        14.233210       119.889400       120.587300       131.746000        -0.582184       116.828400      -123.440900        59.997620         0.009842
1643124167.0000    309319.500000      -106.796200    309611.700000       133.288100    308786.300000        13.414880       119.468700       119.532800       131.459500        -0.937506       117.041100      -123.830800        59.998490         0.014191
1643124168.0000    309200.100000      -108.224700    309540.200000       131.870700    308744.900000        11.989170       116.214500       119.014400       128.747100        -2.524688       113.056600      -124.545100        59.995690        -0.022659
1643124169.0000    309256.500000      -110.116000    309589.900000       129.983000    308823.200000        10.097520       118.001100       118.090200       129.341200        -3.016188       114.388600      -125.917000        59.993660        -0.034561
1643124170.0000    309249.500000      -112.681100    309562.500000       127.411200    308784.100000         7.531597       116.079500       115.216300       128.253300        -5.750141       111.488200      -128.360100        59.992050         0.028839
1643124171.0000    309177.600000      -115.685800    309498.000000       124.410400    308714.500000         4.522910       114.561800       112.376400       126.193200        -8.543679       111.261900      -130.919300        59.991080        -0.016022          *
1643124172.0000    309126.600000      -119.685100    309463.900000       120.409100    308670.400000         0.524138       115.458000       108.293200       128.314900       -12.459380       113.456000      -135.288800        59.988190        -0.013733
1643124173.0000    309177.200000      -124.425200    309495.200000       115.664400    308680.500000        -4.216547       116.814300       103.369300       128.107400       -17.270980       112.012000      -140.083100        59.985120        -0.003204
1643124174.0000    309118.600000      -130.120000    309445.400000       109.972500    308668.600000        -9.911936       118.984400        97.067940       129.880900       -24.243680       114.948100      -146.467200        59.981590        -0.039368
1643124175.0000    309174.200000      -136.837100    309493.100000       103.255300    308726.300000       -16.629700       117.474000        90.412730       128.858000       -30.567510       113.316600      -153.240800        59.981410        -0.006409
1643124176.0000    309352.600000      -144.139300    309645.000000        95.951990    308861.000000       -23.933030       114.579300        84.125180       126.532800       -36.750520       111.018400      -159.788600        59.979980         0.040512
1643124177.0000    309308.200000      -152.057600    309583.800000        88.037860    308823.800000       -31.841460       114.262900        76.900260       126.285200       -44.657890       111.052200      -167.449500        59.979090         0.054474
1643124178.0000    309341.300000      -159.953800    309697.700000        80.144040    308910.600000       -39.745520       114.261400        68.552930       125.220200       -52.513710       109.689600      -175.837700        59.977970         0.021744
1643124179.0000    309254.300000      -168.714400    309601.100000        71.377560    308822.200000       -48.508370       115.162300        59.398980       127.587500       -61.976390       112.142400       175.591700        59.974560         0.014648
