Terminal: LT 500  BURITIRAMA - BARREIRAS II CN6
Tensão base: 500 kV
SOC inicial: 1643124120
SOC final: 1643124179
Taxa: 1 fasores/s
Total de frames faltantes: - 

Tempo_(SOC)           VA_mod_(V)     VA_ang_(graus)     VB_mod_(V)     VB_ang_(graus)     VC_mod_(V)     VC_ang_(graus)     IA_mod_(A)     IA_ang_(graus)     IB_mod_(A)     IB_ang_(graus)     IC_mod_(A)     IC_ang_(graus)     Frequência        Delta_Freq     Faltante
1643124120.0000    305538.900000       -29.645870    305965.600000      -149.524300    304097.400000        90.557750       507.894100       -15.164500       535.786700      -137.068100       508.764800       102.697600        59.976390         0.059967
1643124121.0000    305460.800000       -38.665970    305924.000000      -158.539300    304077.500000        81.539630       508.766200       -24.154040       536.943800      -146.063000       510.456700        93.709340        59.972980        -0.022659
1643124122.0000    305424.900000       -48.097770    305899.500000      -167.978000    304008.200000        72.100330       508.659500       -33.630610       536.523300      -155.561800       510.269500        84.236300        59.973560         0.038681
1643124123.0000    305440.100000       -58.090250    305906.100000      -177.971200    304011.500000        62.110320       508.962900       -43.670550       537.207300      -165.610700       510.428000        74.208580        59.972400         0.031128
1643124124.0000    305490.600000       -68.440700    305963.800000       171.684400    304077.400000        51.764000       508.818400       -53.917440       536.417500      -175.869200       509.445000        63.850890        59.971530         0.032730
1643124125.0000    305431.700000       -79.063410    305924.500000       161.065100    304043.300000        41.138460       508.097000       -64.705440       536.525800       173.396300       509.784300        53.198260        59.969930         0.033417
1643124126.0000    305414.800000       -90.210950    305876.000000       149.910300    303990.200000        29.990590       508.325000       -75.828830       535.901800       162.332100       509.317200        42.140380        59.968590        -0.019913
1643124127.0000    305399.300000      -101.781500    305871.200000       138.341700    303992.900000        18.421090       508.986100       -87.340580       537.247300       150.727800       509.685500        30.559860        59.966750        -0.003891
1643124128.0000    305566.300000      -113.236700    306022.200000       126.887800    304168.300000         6.968223       506.874800       -98.648020       534.319000       139.407800       508.140800        19.259710        59.970310         0.085831
1643124129.0000    305432.200000      -124.374000    305871.200000       115.747300    304005.700000        -4.172489       508.732500      -110.008000       536.568400       128.117500       509.980000         7.947843        59.968010        -0.038223
1643124130.0000    305408.100000      -135.858300    305870.200000       104.262300    304002.500000       -15.661150       508.433700      -121.433900       536.177600       116.708700       509.929600        -3.514078        59.966480        -0.024948
1643124131.0000    305335.500000      -147.355600    305813.200000        92.764020    303914.700000       -27.158380       507.604400      -132.968000       535.834200       105.139600       509.485600       -15.041790        59.965310        -0.135727
1643124132.0000    305294.700000      -159.410900    305742.800000        80.712520    303903.800000       -39.207350       509.776400      -145.249600       537.073400        92.920300       510.735300       -27.328250        59.965030         0.005951
1643124133.0000    305330.100000      -172.532200    305770.400000        67.585040    303899.200000       -52.333870       508.325700      -158.204800       536.441000        79.865930       510.125300       -40.302970        59.964150         0.078506
1643124134.0000    305399.400000       173.805100    305814.400000        53.926500    303964.800000       -65.989050       507.851300      -171.784600       535.573800        66.330790       508.839600       -53.907120        59.961710         0.003433
1643124135.0000    305325.500000       159.664400    305747.500000        39.786280    303882.300000       -80.129750       508.890200       173.978000       537.222000        52.031460       509.880900       -68.136140        59.959720         0.028152
1643124136.0000    305428.800000       145.055800    305881.800000        25.175280    303993.700000       -94.745880       508.146300       159.445500       535.780900        37.539410       509.191400       -82.618390        59.960470         0.021057
1643124137.0000    305350.600000       131.180800    305837.100000        11.303580    303950.600000      -108.621600       509.846400       145.515700       538.238700        23.566290       511.584200       -96.631480        59.961790         0.013504
1643124138.0000    305304.600000       117.955200    305753.500000        -1.921981    303888.100000      -121.842200       511.280800       132.125700       539.180500        10.263620       512.551500      -109.979700        59.963560         0.007553
1643124139.0000    305362.500000       105.056600    305825.100000       -14.817140    303967.300000      -134.740400       509.358800       119.328100       537.110200        -2.534812       511.096300      -122.752900        59.964560         0.041885
1643124140.0000    305268.700000        92.661690    305738.400000       -27.212610    303894.100000      -147.138700       510.792700       106.775300       538.937300       -15.069560       512.386100      -135.226200        59.965130        -0.010986
1643124141.0000    305331.000000        80.532430    305783.100000       -39.344020    303915.000000      -159.264700       510.249400        94.756000       537.687400       -27.135630       511.894500      -147.360600        59.966430         0.015106
1643124142.0000    305300.000000        68.903800    305781.200000       -50.967140    303915.800000      -170.892500       511.633500        82.967560       539.225300       -38.873290       512.456100      -159.039700        59.968100         0.028839
1643124143.0000    305389.400000        57.657420    305823.000000       -62.213340    303985.400000       177.865400       511.328000        71.857770       538.329500       -50.040020       512.577100      -170.205900        59.970020         0.031128
1643124144.0000    305377.700000        47.104390    305829.500000       -72.760190    304011.800000       167.311900       510.682500        61.347510       538.189000       -60.622340       511.445000       179.291600        59.971990         0.024948
1643124145.0000    305283.900000        37.181560    305711.200000       -82.690250    303887.500000       157.390700       511.618000        51.313450       539.398600       -70.596920       513.328400       169.262900        59.971560        -0.076904
1643124146.0000    305336.400000        27.508830    305758.600000       -92.365920    303936.300000       147.712400       512.559200        41.635980       540.376400       -80.283580       513.709400       159.571700        59.973120         0.001831
1643124147.0000    305311.000000        18.030860    305751.500000      -101.852000    303868.900000       138.228300       512.597200        32.107670       541.414900       -89.751770       514.296000       149.992700        59.973880         0.027237
1643124148.0000    305335.700000         8.500604    305814.200000      -111.385300    303889.600000       128.692300       512.171500        22.651690       540.560200       -99.186530       513.963600       140.588600        59.973720         0.006866
1643124149.0000    305407.000000        -0.597157    305853.300000      -120.485100    303936.500000       119.601300       511.345400        13.682930       539.588300      -108.211500       513.407300       131.557000        59.976700         0.044861
1643124150.0000    305446.300000        -9.170626    305905.200000      -129.058000    303990.100000       111.026100       510.932300         5.053529       539.059000      -116.743100       511.999400       123.037200        59.976260        -0.035477
1643124151.0000    305540.300000       -16.822010    305970.300000      -136.716600    304038.600000       103.370500       509.375100        -2.488687       537.527200      -124.385100       510.514300       115.427500        59.980400         0.031815
1643124152.0000    305450.200000       -23.634380    305898.600000      -143.527900    303984.800000        96.562000       509.798600        -9.334710       538.021200      -131.250000       511.039400       108.538900        59.981900        -0.013275
1643124153.0000    305499.700000       -30.124400    305929.700000      -150.008900    304061.300000        90.074870       509.107500       -15.724190       536.986100      -137.651800       510.394200       102.090500        59.982220         0.005035
1643124154.0000    305576.900000       -36.191760    306022.700000      -156.081000    304088.400000        84.006250       508.752200       -21.735320       536.827800      -143.664000       509.949000        96.119840        59.985540         0.053558
1643124155.0000    305583.300000       -41.210190    306029.900000      -161.094200    304138.300000        78.989110       509.459100       -26.834560       537.493800      -148.734400       510.177600        91.065210        59.987380         0.047379
1643124156.0000    305540.100000       -45.500590    306001.100000      -165.383500    304095.100000        74.695920       508.957400       -31.154830       537.899700      -153.041800       510.822000        86.711370        59.988510        -0.035248
1643124157.0000    305475.000000       -49.215080    305922.800000      -169.100900    304029.800000        70.984000       511.274700       -34.953110       538.960400      -156.810900       512.519300        82.968940        59.990200         0.011444
1643124158.0000    305572.700000       -52.772050    306030.500000      -172.660200    304123.000000        67.426930       508.705500       -38.387840       537.224700      -160.255700       510.171800        79.539930        59.991580        -0.002060
1643124159.0000    305650.400000       -55.318820    306112.800000      -175.203600    304215.500000        64.881290       508.075200       -40.782010       535.767200      -162.737000       508.873600        77.112000        59.992720        -0.029526
1643124160.0000    305589.100000       -56.885960    305997.900000      -176.772800    304085.200000        63.316210       509.885200       -42.465260       537.536000      -164.421200       511.015400        75.400420        59.997320         0.028610
1643124161.0000    305696.900000       -57.978930    306121.300000      -177.863500    304217.600000        62.224190       507.654500       -43.476090       535.805200      -165.416800       509.027600        74.405890        59.999440         0.084915
1643124162.0000    305637.700000       -58.369950    306037.200000      -178.258000    304170.600000        61.835610       510.086800       -43.905440       538.558500      -165.872200       511.137300        73.921490        59.999430         0.010757
1643124163.0000    305605.000000       -58.366660    306030.000000      -178.254500    304143.000000        61.834360       509.290300       -43.925600       537.210300      -165.870900       510.551800        73.919680        60.000610        -0.057220
1643124164.0000    305609.300000       -58.380730    306036.800000      -178.271800    304114.100000        61.816470       509.310200       -43.921300       537.459800      -165.861500       510.805400        73.826890        60.001340         0.089493
1643124165.0000    305690.700000       -58.629760    306145.100000      -178.523800    304210.800000        61.564580       507.902400       -44.050410       536.131900      -166.028200       508.924300        73.774980        60.000460         0.088806
1643124166.0000    305536.700000       -58.757340    306010.800000      -178.633900    304111.100000        61.439710       509.826800       -44.355530       536.947100      -166.296300       510.752900        73.581870        59.999070        -0.035934
1643124167.0000    305521.800000       -59.631990    305943.200000      -179.505700    304127.600000        60.578770       510.674000       -45.232800       538.589000      -167.206200       511.132000        72.650980        59.997560         0.048065
1643124168.0000    305634.400000       -61.295120    306055.600000       178.831300    304243.100000        58.912370       507.150700       -46.664940       535.234900      -168.646200       507.709500        71.245170        59.994260        -0.043945
1643124169.0000    305625.300000       -63.077420    306030.700000       177.044700    304187.600000        57.132980       508.317000       -48.510910       536.058700      -170.449900       508.859300        69.351750        59.994200        -0.018768
1643124170.0000    305602.200000       -65.701210    306021.500000       174.423500    304193.600000        54.508260       507.082000       -51.171920       535.030300      -173.122500       508.065900        66.760180        59.990520        -0.099335
1643124171.0000    305605.800000       -68.786670    306024.700000       171.339100    304205.300000        51.422570       508.629200       -54.244000       536.506200      -176.264800       509.619300        63.556810        59.991700         0.044861
1643124172.0000    305533.800000       -72.630300    305918.500000       167.497700    304125.200000        47.584580       509.509100       -58.173380       537.453600       179.868400       510.736100        59.745220        59.987780         0.019684
1643124173.0000    305572.700000       -77.470890    306001.600000       162.653600    304169.600000        42.735860       508.524400       -62.971000       535.948900       175.089100       508.433900        54.956070        59.987800         0.114441
1643124174.0000    305465.500000       -83.090770    305889.600000       157.034500    304041.200000        37.115260       509.703200       -68.720990       537.170000       169.273700       510.438800        49.194210        59.981770        -0.095215
1643124175.0000    305560.600000       -89.863760    305977.600000       150.261100    304143.400000        30.341980       508.475900       -75.368020       535.971100       162.598200       509.278900        42.503460        59.980310         0.061111
1643124176.0000    305550.500000       -97.370060    305963.100000       142.755700    304119.400000        22.838220       508.747700       -82.794360       536.448500       155.222900       509.414500        35.016780        59.978890        -0.009155
1643124177.0000    305609.800000      -105.378400    306037.100000       134.752600    304223.700000        14.829890       507.320600       -90.796750       534.435400       147.253500       508.074600        27.097170        59.977860         0.037537
1643124178.0000    305606.300000      -113.241700    306004.800000       126.884700    304162.700000         6.967895       507.067500       -98.703830       534.445300       139.397600       507.775900        19.210800        59.978460         0.046692
1643124179.0000    305419.100000      -121.792800    305868.900000       118.336700    304042.400000        -1.589320       508.302800      -107.362000       536.062900       130.690600       509.461100        10.558830        59.973990        -0.000687
