Terminal: LT 525  NOVA STA RITA - ITA C1
Tensão base: 525 kV
SOC inicial: 1643124120
SOC final: 1643124179
Taxa: 1 fasores/s
Total de frames faltantes: - 

Tempo_(SOC)           VA_mod_(V)     VA_ang_(graus)     VB_mod_(V)     VB_ang_(graus)     VC_mod_(V)     VC_ang_(graus)     IA_mod_(A)     IA_ang_(graus)     IB_mod_(A)     IB_ang_(graus)     IC_mod_(A)     IC_ang_(graus)     Frequência        Delta_Freq     Faltante
1643124120.0000    312257.400000      -137.798900    313089.100000       101.848700    311350.100000       -18.106160       647.800000        45.195070       625.703000       -73.035290       652.388200       167.384300        59.975150        -0.013733
1643124121.0000    312174.600000      -146.939600    312900.600000        92.678640    311079.000000       -27.239860       648.383800        36.067340       627.614700       -82.255280       653.188600       158.060500        59.972850        -0.115356
1643124122.0000    312234.300000      -156.380100    313144.600000        83.245830    311262.100000       -36.708730       648.465900        26.648620       627.224800       -91.528160       654.247400       148.777100        59.974620         0.127487
1643124123.0000    312213.100000      -166.285800    312994.200000        73.413330    311499.200000       -46.555360       648.058500        16.734580       624.872000      -101.557700       651.876300       138.949200        59.971070         0.007095
1643124124.0000    312365.800000      -176.459000    313159.600000        63.202360    311492.900000       -56.750490       647.622700         6.595017       625.433200      -111.652500       651.942200       128.781100        59.973290         0.079193
1643124125.0000    312342.500000       172.833900    313196.700000        52.453540    311300.100000       -67.488030       647.104900        -4.125009       626.102800      -122.318300       652.489900       117.955500        59.973170         0.185165
1643124126.0000    312261.800000       161.573100    313047.100000        41.255020    311480.400000       -78.708500       647.884100       -15.394150       625.023600      -133.669700       651.825400       106.808400        59.967310         0.016479
1643124127.0000    312097.500000       149.908500    312881.600000        29.584370    311274.800000       -90.374570       648.918100       -27.102010       626.555500      -145.343200       653.263600        95.098310        59.966960         0.085373
1643124128.0000    312351.900000       138.797300    313245.700000        18.432700    311422.600000      -101.522800       647.733300       -38.167490       626.380300      -156.359100       652.847800        83.974490        59.969720        -0.002518
1643124129.0000    312379.100000       127.189600    313157.300000         6.806873    311302.900000      -113.120000       648.163000       -49.715770       627.597600      -167.960500       653.101400        72.345320        59.969090        -0.033646
1643124130.0000    312372.400000       115.933700    313113.500000        -4.404133    311487.300000      -124.349200       648.327000       -61.009420       626.290700      -179.302000       652.765900        61.097880        59.968930         0.058365
1643124131.0000    312106.700000       104.264600    312771.200000       -16.119580    310965.300000      -136.027400       649.190100       -72.708920       628.361500       168.939000       653.151400        49.296200        59.967510         0.043945
1643124132.0000    312157.500000        91.967120    313074.800000       -28.405310    311183.000000      -148.365800       648.860600       -85.043140       627.173300       156.783900       654.252100        37.121720        59.966430         0.019684
1643124133.0000    312233.200000        79.018140    313091.600000       -41.331280    311331.600000      -161.290600       649.275300       -97.892330       627.235600       143.845000       653.800500        24.244590        59.961020        -0.133667
1643124134.0000    312204.400000        65.488690    312921.800000       -54.920020    310963.300000      -174.826200       648.626200      -111.434700       628.332300       130.226800       653.345900        10.557460        59.961410        -0.094757
1643124135.0000    312371.000000        51.233170    313080.900000       -69.132200    311348.100000       170.939600       648.465800      -125.669500       627.070900       116.038700       652.825200        -3.601470        59.960370         0.011444
1643124136.0000    312313.600000        36.729600    313166.900000       -83.627130    311386.000000       156.418700       649.166300      -140.154300       627.478600       101.607700       653.919700       -18.038640        59.958490        -0.068436
1643124137.0000    312383.600000        22.673050    313146.000000       -97.688810    311374.500000       142.373000       648.633700      -154.250800       627.635100        87.503810       653.585900       -32.152910        59.961540        -0.016251
1643124138.0000    312486.300000         9.227227    313222.800000      -111.130700    311495.700000       128.934400       648.855300      -167.659600       627.522800        74.055650       653.568000       -45.588840        59.965000         0.022202
1643124139.0000    312128.200000        -3.502962    313012.200000      -123.884800    311080.300000       116.170000       649.015800       179.524800       627.924400        61.315160       654.268800       -58.404790        59.965710         0.070953
1643124140.0000    312172.500000       -16.110510    313046.300000      -136.441600    311366.800000       103.588000       649.598400       166.911500       627.118700        48.664990       653.980900       -70.905300        59.966420         0.038452
1643124141.0000    312294.200000       -28.126480    313050.400000      -148.479600    311327.700000        91.581270       649.135600       154.963600       627.101100        36.669140       653.441100       -82.926220        59.968050         0.070724
1643124142.0000    312197.100000       -39.914150    312919.300000      -160.256000    311283.800000        79.803010       649.427100       143.183500       627.201900        24.855900       653.205100       -94.703260        59.968300         0.095215
1643124143.0000    312163.000000       -51.039160    313012.500000      -171.367400    311375.500000        68.668990       648.879500       131.935700       626.584700        13.673560       653.540400      -105.866300        59.969440         0.051956
1643124144.0000    312406.800000       -61.521870    313097.800000       178.117600    311360.600000        58.192300       648.553600       121.549700       627.145900         3.239169       652.860200      -116.367000        59.971290        -0.020599
1643124145.0000    312282.800000       -71.701810    313004.000000       167.904700    311158.700000        47.989910       648.947500       111.352400       628.471500        -6.944654       653.918800      -126.637300        59.971320        -0.050812
1643124146.0000    312224.500000       -81.361690    312965.500000       158.298200    311326.300000        38.355570       649.638500       101.678900       627.545400       -16.608620       653.924900      -136.183800        59.974680         0.042572
1643124147.0000    312493.600000       -90.867840    313248.500000       148.778400    311513.000000        28.836220       647.910400        92.235950       626.165800       -26.045240       652.371300      -145.643000        59.972800        -0.029755
1643124148.0000    312344.700000      -100.244100    313202.800000       139.396800    311407.200000        19.446890       647.901400        82.816820       626.291400       -35.403870       652.832100      -155.036700        59.974230        -0.043716
1643124149.0000    312404.200000      -109.284800    313208.500000       130.342200    311378.700000        10.401290       647.757900        73.822720       626.326400       -44.432110       652.700200      -164.097600        59.975470        -0.029984
1643124150.0000    312432.100000      -117.873600    313212.000000       121.754000    311375.600000         1.817222       648.557300        65.205960       627.320100       -53.027760       653.486900      -172.686900        59.977160        -0.024719
1643124151.0000    312046.600000      -125.458900    312779.800000       114.214300    311200.600000        -5.735633       650.225300        57.486470       628.035900       -60.787330       654.192900       179.673800        59.980220        -0.011215
1643124152.0000    312302.200000      -132.378500    313090.800000       107.281600    311427.300000       -12.669020       649.519200        50.653000       627.537500       -67.619830       654.058700       172.799600        59.981530         0.029297
1643124153.0000    312473.800000      -138.752000    313337.800000       100.884800    311535.500000       -19.066740       647.860400        44.360660       626.469200       -73.859660       652.844000       166.462600        59.983370         0.015335
1643124154.0000    312418.400000      -144.571500    313272.200000        95.060490    311442.000000       -24.886770       647.775200        38.548520       626.435500       -79.678280       652.889600       160.647100        59.985380         0.011673
1643124155.0000    312165.900000      -149.779500    313096.300000        89.852390    311221.700000       -30.104780       649.984200        33.239170       628.658400       -84.930020       655.502000       155.378300        59.988560        -0.018768
1643124156.0000    312039.100000      -153.870500    312860.200000        85.801390    311218.200000       -34.158090       650.327100        29.115840       628.377300       -89.152400       654.650000       151.263400        59.988460         0.043716
1643124157.0000    312422.100000      -157.770200    313276.200000        81.863690    311439.500000       -38.084670       648.615700        25.342600       627.246800       -92.882900       653.771700       147.408000        59.991640         0.017166
1643124158.0000    312440.600000      -161.195000    313254.300000        78.443340    311475.500000       -41.501360       648.471300        21.912850       626.810000       -96.346970       653.377400       144.018200        59.993260         0.080109
1643124159.0000    312208.600000      -163.623800    313060.300000        76.033900    311327.200000       -43.926730       649.229900        19.394630       627.504600       -98.816760       654.087700       141.570900        59.994160        -0.019913
1643124160.0000    312390.500000      -165.401900    313149.200000        74.235080    311386.300000       -45.702420       649.430200        17.698740       627.843900      -100.586900       653.644200       139.797500        59.997390        -0.069122
1643124161.0000    312273.700000      -166.287100    313143.100000        73.362140    311378.800000       -46.597300       648.562900        16.793580       626.937000      -101.438000       653.814400       138.930700        59.996040        -0.073242
1643124162.0000    312166.100000      -166.940200    312930.000000        72.704700    311187.300000       -47.238000       650.288800        16.116870       628.771000      -102.163100       654.821800       138.230000        59.997110        -0.069122
1643124163.0000    312184.400000      -167.058600    312871.500000        72.589390    311193.400000       -47.344480       651.086400        16.048640       629.004400      -102.247100       655.050600       138.159400        60.001660        -0.028839
1643124164.0000    312255.100000      -167.005100    313079.600000        72.637790    311308.100000       -47.310900       649.608000        16.097700       628.080900      -102.203600       654.332300       138.232800        60.001700        -0.038681
1643124165.0000    312369.200000      -166.944900    313239.400000        72.706260    311469.000000       -47.253260       648.225000        16.156070       626.682400      -102.066900       653.445000       138.289900        59.999000        -0.010986
1643124166.0000    312122.500000      -167.403800    312719.100000        72.200840    310872.400000       -47.697080       649.692100        15.643200       629.366200      -102.693300       654.019500       137.600900        59.996710        -0.065918
1643124167.0000    311973.100000      -168.351700    312986.300000        71.259600    310987.200000       -48.703870       648.046400        14.560080       627.521700      -103.589300       654.325000       136.648800        60.001130         0.166168
1643124168.0000    312087.000000      -169.461900    313131.000000        70.150670    311115.700000       -49.819530       648.433700        13.529450       627.454800      -104.639800       654.046300       135.616100        59.993050        -0.008469
1643124169.0000    311899.300000      -171.537700    312705.800000        68.163860    311234.800000       -51.808570       650.787200        11.424380       627.455200      -106.848600       654.366800       133.657800        59.993490         0.000458
1643124170.0000    312069.600000      -174.002800    312789.300000        65.625350    311004.500000       -54.303550       649.709900         9.022458       628.712500      -109.273600       654.247400       131.077800        59.992550         0.050354
1643124171.0000    312335.700000      -177.161000    313247.500000        62.462050    311352.100000       -57.492950       647.175500         5.950459       626.140000      -112.256100       652.612400       128.020600        59.990750        -0.012589
1643124172.0000    312145.900000       178.829200    312829.000000        58.440740    310979.700000       -61.470930       649.184100         1.898189       628.369800      -116.440400       653.739300       123.895400        59.986860        -0.013275
1643124173.0000    312376.500000       174.167300    313262.700000        53.809050    311472.300000       -66.149250       646.893800        -2.711236       625.348800      -120.937000       652.027800       119.406300        59.986710         0.001602
1643124174.0000    312032.400000       168.215100    313119.000000        47.825940    311095.300000       -72.149820       646.969700        -8.836273       626.248600      -126.940200       653.403200       113.306100        59.980640        -0.121994
1643124175.0000    312265.900000       161.597300    313157.000000        41.246000    311391.900000       -78.716470       647.519200       -15.346420       625.815200      -133.553400       652.684500       106.804600        59.979930        -0.050125
1643124176.0000    312385.700000       154.152400    313246.800000        33.805240    311506.300000       -86.153650       646.564000       -22.749220       625.011800      -140.933100       651.491900        99.420850        59.978660         0.020142
1643124177.0000    312132.700000       146.360800    312909.400000        25.957340    310963.300000       -93.962560       647.525600       -30.647940       627.342500      -148.897400       652.976800        91.390400        59.976810        -0.113068
1643124178.0000    312156.600000       138.325200    312940.700000        17.973950    311234.400000      -101.967400       648.699300       -38.616080       626.973300      -156.854500       653.526100        83.528430        59.978080         0.116501
1643124179.0000    312385.800000       129.596100    313227.500000         9.240140    311457.800000      -110.717600       646.675400       -47.280000       625.266400      -165.508400       651.690000        74.831440        59.974320        -0.066834
