Terminal: LT 500  ARINOS 2 - RIO DAS EGUAS CN4
Tensão base: 500 kV
SOC inicial: 1643124120
SOC final: 1643124179
Taxa: 1 fasores/s
Total de frames faltantes: - 

Tempo_(SOC)           VA_mod_(V)     VA_ang_(graus)     VB_mod_(V)     VB_ang_(graus)     VC_mod_(V)     VC_ang_(graus)     IA_mod_(A)     IA_ang_(graus)     IB_mod_(A)     IB_ang_(graus)     IC_mod_(A)     IC_ang_(graus)     Frequência        Delta_Freq     Faltante
1643124120.0000    306477.100000       -39.811130    305997.800000      -160.083600    305164.000000        80.152440       419.186400       124.151200       438.797500         2.922886       420.739100      -117.190100        59.975810         0.052567
1643124121.0000    306432.700000       -48.846690    305972.900000      -169.112300    305163.400000        71.116200       420.214000       115.264900       439.599300        -6.003111       421.222500      -126.084700        59.973910        -0.048614
1643124122.0000    306377.000000       -58.294140    305950.800000      -178.563400    305110.300000        61.660550       420.843800       105.837700       440.815100       -15.405710       422.296400      -135.481000        59.973720        -0.041082
1643124123.0000    306357.300000       -68.286450    305909.500000       171.441200    305069.100000        51.669570       420.792600        95.797980       440.411400       -25.550280       422.088700      -145.573900        59.971870        -0.116224
1643124124.0000    306449.300000       -78.614270    305994.100000       161.116000    305174.900000        41.343060       420.020300        85.465350       439.913800       -35.808930       421.438200      -155.903000        59.971490         0.069920
1643124125.0000    306312.800000       -89.241860    305903.000000       150.489600    305071.700000        30.708070       420.445900        74.806670       439.615300       -46.488750       421.811000      -166.542200        59.969450         0.046413
1643124126.0000    306351.200000      -100.391600    305887.800000       139.330400    305045.800000        19.561990       420.198300        63.726260       440.038100       -57.580960       421.696300      -177.689800        59.968100        -0.048476
1643124127.0000    306357.900000      -111.969200    305910.700000       127.755900    305084.600000         7.983069       420.310700        52.154110       440.093300       -69.161120       421.562500       170.770700        59.967840        -0.018977
1643124128.0000    306522.900000      -123.361500    306080.600000       116.368600    305280.600000        -3.407265       417.841600        40.516550       438.241900       -80.790860       419.585100       159.092600        59.970430        -0.010402
1643124129.0000    306292.800000      -134.550700    305857.000000       105.174200    305037.500000       -14.599860       419.719900        29.436650       439.351800       -91.889620       420.513800       148.051700        59.967720        -0.033114
1643124130.0000    306317.400000      -146.034200    305871.800000        93.690520    305062.400000       -26.080980       420.145400        17.970230       439.748800      -103.300300       421.344300       136.585800        59.968250         0.142008
1643124131.0000    306198.200000      -157.522500    305787.700000        82.198240    304949.400000       -37.576160       419.110700         6.503551       439.401200      -114.858500       420.684500       125.044800        59.965570        -0.058250
1643124132.0000    306131.400000      -169.619900    305667.100000        70.107600    304890.100000       -49.660480       420.241900        -5.491457       440.644400      -126.789400       422.138900       113.071900        59.965260         0.014918
1643124133.0000    306217.800000       177.281000    305756.700000        56.992760    304910.200000       -62.766490       420.268800       -18.653690       440.509600      -139.948100       422.103500        99.872530        59.963090        -0.161062
1643124134.0000    306295.300000       163.644600    305823.800000        43.358320    304993.400000       -76.398560       419.097900       -32.314900       439.118000      -153.616600       421.038900        86.210550        59.962600        -0.064345
1643124135.0000    306180.900000       149.475500    305710.300000        29.190040    304884.100000       -90.565530       419.585000       -46.517990       439.823000      -167.746900       421.445800        72.121410        59.959870        -0.028204
1643124136.0000    306320.500000       134.892600    305886.000000        14.609480    305047.000000      -105.151400       418.984400       -61.122000       439.082600       177.604800       420.658300        57.474740        59.960950        -0.084018
1643124137.0000    306227.300000       120.982600    305804.700000         0.706139    304988.100000      -119.058800       419.694000       -74.999340       439.545100       163.682100       420.696000        43.565030        59.962910         0.068208
1643124138.0000    306113.800000       107.725800    305695.800000       -12.551660    304866.200000      -132.315800       421.111500       -88.176160       440.692900       150.525900       422.532900        30.408340        59.963780        -0.029913
1643124139.0000    306214.900000        94.849370    305812.500000       -25.421550    304995.500000      -145.190600       420.575100      -101.050600       440.812000       137.673600       422.371900        17.513440        59.965370         0.164919
1643124140.0000    306083.600000        82.415860    305676.300000       -37.855860    304852.100000      -157.623400       421.460900      -113.387900       442.113400       125.324900       423.176000         5.204848        59.964940         0.022797
1643124141.0000    306148.700000        70.306220    305708.000000       -49.965070    304893.300000      -169.727000       420.944400      -125.638800       440.938900       113.091000       422.279200        -7.048108        59.967750         0.179906
1643124142.0000    306090.700000        58.651480    305675.000000       -61.613110    304872.800000       178.617200       422.032100      -137.248000       442.076300       101.518500       423.356500       -18.627750        59.967900        -0.020121
1643124143.0000    306180.700000        47.437690    305750.700000       -72.831590    304927.600000       167.402800       420.244000      -148.579400       440.889200        90.130650       422.056100       -30.006230        59.970700        -0.070641
1643124144.0000    306190.000000        36.884560    305753.000000       -83.374110    304976.500000       156.855100       420.291700      -159.093800       440.664200        79.604860       422.212700       -40.551040        59.972210        -0.071149
1643124145.0000    306048.500000        26.924790    305587.700000       -93.338990    304795.400000       146.896100       421.629600      -169.008700       441.559300        69.754220       423.405400       -50.369430        59.971530        -0.021377
1643124146.0000    306110.100000        17.249580    305688.600000      -103.013800    304874.100000       137.213800       422.254600      -178.705400       441.636600        60.076680       423.810800       -60.070690        59.973130        -0.044052
1643124147.0000    306073.700000         7.767306    305717.000000      -112.511600    304795.700000       127.712400       421.620300       171.806800       441.352400        50.583240       423.225300       -69.570120        59.973570         0.007180
1643124148.0000    306143.100000        -1.744447    305801.800000      -122.027600    304849.000000       118.194500       420.772600       162.299700       440.970900        41.007940       422.887100       -79.112660        59.974580        -0.025724
1643124149.0000    306247.200000       -10.825030    305853.500000      -131.108600    304926.300000       109.121400       420.307600       153.113200       440.273000        31.892040       422.029100       -88.256260        59.976370        -0.033842
1643124150.0000    306317.200000       -19.392340    305908.000000      -139.675500    304988.700000       100.555900       420.366100       144.671400       440.404800        23.385990       422.489300       -96.695600        59.976980        -0.017865
1643124151.0000    306372.900000       -27.004640    305979.800000      -147.293100    305028.800000        92.937470       419.004100       136.849600       438.806700        15.614850       421.102000      -104.495200        59.980760        -0.016929
1643124152.0000    306255.800000       -33.843340    305814.300000      -154.131700    304888.500000        86.105780       419.868000       130.084700       440.061500         8.798026       421.959200      -111.367200        59.981770        -0.020826
1643124153.0000    306356.800000       -40.316970    305926.100000      -160.603300    305005.800000        79.630840       420.336000       123.693900       440.434000         2.386031       421.710400      -117.762400        59.981950        -0.118448
1643124154.0000    306501.900000       -46.375210    306071.400000      -166.663700    305142.600000        73.570780       419.867300       117.646900       439.975500        -3.641797       421.552300      -123.753900        59.985190        -0.141096
1643124155.0000    306489.100000       -51.402870    306054.600000      -171.686600    305152.300000        68.545490       419.649300       112.695800       439.872800        -8.606829       421.384500      -128.763900        59.987570         0.071293
1643124156.0000    306428.700000       -55.700520    305999.100000      -175.986900    305085.200000        64.245090       420.098000       108.383000       440.482100       -12.884140       422.152600      -133.032200        59.988340        -0.092548
1643124157.0000    306374.200000       -59.442840    305905.000000      -179.726800    305022.700000        60.510290       420.905400       104.655300       440.907200       -16.606720       422.366100      -136.753500        59.990410        -0.000926
1643124158.0000    306505.300000       -62.963870    306048.600000       176.751000    305157.100000        56.986550       419.515100       101.161100       439.714600       -20.130120       421.280700      -140.253000        59.992220        -0.033109
1643124159.0000    306577.300000       -65.473640    306133.000000       174.246400    305259.900000        54.476860       418.136800        98.420410       438.175700       -22.830430       420.175100      -142.912400        59.994070         0.123581
1643124160.0000    306520.900000       -67.076130    306027.500000       172.631700    305122.400000        52.876010       419.381200        97.004390       439.700700       -24.314270       421.197800      -144.449000        59.997100        -0.155018
1643124161.0000    306632.700000       -68.148570    306153.800000       171.565500    305272.400000        51.804340       420.079200        95.884320       440.289900       -25.406640       421.975000      -145.519700        59.997830        -0.072451
1643124162.0000    306606.300000       -68.576000    306094.300000       171.129000    305186.600000        51.377470       420.160500        95.562520       440.317400       -25.690490       421.867200      -145.848300        59.999860        -0.011012
1643124163.0000    306544.500000       -68.558820    306061.500000       171.148100    305149.100000        51.391360       419.906700        95.557950       439.849100       -25.731080       421.361800      -145.872900        60.000580        -0.118279
1643124164.0000    306565.100000       -68.576720    306094.800000       171.127900    305166.300000        51.369930       420.031500        95.545410       439.967800       -25.749510       421.371700      -145.863200        60.000860        -0.161571
1643124165.0000    306617.200000       -68.784850    306211.300000       170.923500    305267.000000        51.153210       418.211200        95.122100       437.934900       -26.115470       419.856600      -146.277500        60.000570         0.006504
1643124166.0000    306413.200000       -68.948910    306014.700000       170.783200    305177.000000        50.999750       419.466200        95.066700       439.285500       -26.211190       421.054900      -146.317800        59.999070        -0.107449
1643124167.0000    306437.500000       -69.844920    305939.100000       169.890200    305166.800000        50.121630       420.191000        94.158580       440.060800       -27.001970       421.774400      -147.136200        59.996670        -0.142855
1643124168.0000    306598.100000       -71.443120    306107.300000       168.294000    305340.100000        48.522900       418.304000        92.547640       437.743100       -28.743340       419.950000      -148.879100        59.995290        -0.098080
1643124169.0000    306525.600000       -73.237270    306000.800000       166.490000    305207.100000        46.729470       419.061100        90.635650       438.816700       -30.622440       420.149200      -150.695400        59.993850        -0.139796
1643124170.0000    306544.400000       -75.861670    306003.800000       163.871000    305243.800000        44.109890       420.083500        88.164520       439.435600       -33.155410       420.980000      -153.211600        59.990800        -0.053557
1643124171.0000    306532.600000       -78.961820    306028.000000       160.772100    305259.300000        41.004500       419.477800        85.044690       439.363100       -36.319050       420.904800      -156.342800        59.991420        -0.095246
1643124172.0000    306474.100000       -82.830970    305924.500000       156.900600    305168.900000        37.141420       420.789100        81.222890       440.038600       -40.029420       421.941200      -160.128600        59.988670        -0.065635
1643124173.0000    306514.800000       -87.643220    305990.200000       152.089900    305233.400000        32.325620       419.590100        76.348010       439.093300       -44.943570       420.794500      -165.012300        59.986620        -0.018198
1643124174.0000    306319.600000       -93.283360    305818.700000       146.447600    305044.800000        26.680670       419.356900        70.700180       439.127500       -50.575420       420.943700      -170.667500        59.981490        -0.033363
1643124175.0000    306475.300000      -100.027500    305957.100000       139.699900    305178.900000        19.937560       418.475200        63.948300       438.461700       -57.393140       419.980300      -177.537100        59.981450        -0.012233
1643124176.0000    306477.600000      -107.530700    305965.800000       132.198000    305195.100000        12.433950       418.480200        56.424140       438.393900       -64.860860       419.518800       175.022800        59.978710        -0.125108
1643124177.0000    306562.500000      -115.524500    306063.200000       124.210900    305321.700000         4.441891       418.363800        48.426450       438.720500       -72.866930       420.208900       167.010300        59.979050         0.032556
1643124178.0000    306536.800000      -123.391300    306023.300000       116.336600    305258.700000        -3.425821       418.967100        40.567230       438.773700       -80.724080       420.382000       159.205200        59.978860        -0.109791
1643124179.0000    306344.900000      -131.986300    305872.400000       107.747600    305120.200000       -12.024120       420.563300        32.211140       440.347000       -89.120530       421.689000       150.775400        59.973810        -0.119574
