Terminal: LT 500  MUTUM - G.VALADARES 6 C1
Tensão base: 500 kV
SOC inicial: 1643124120
SOC final: 1643124179
Taxa: 1 fasores/s
Total de frames faltantes: - 

Tempo_(SOC)           VA_mod_(V)     VA_ang_(graus)     VB_mod_(V)     VB_ang_(graus)     VC_mod_(V)     VC_ang_(graus)     IA_mod_(A)     IA_ang_(graus)     IB_mod_(A)     IB_ang_(graus)     IC_mod_(A)     IC_ang_(graus)     Frequência        Delta_Freq     Faltante
1643124120.0000    306061.400000       -76.262830    305545.900000       163.852600    306287.600000        43.910220       890.814600       119.778200       899.135400        -1.252374       879.758400      -121.386900        59.974010        -0.032959
1643124121.0000    306020.200000       -85.303770    305540.200000       154.817500    306304.600000        34.863860       892.359100       110.693600       900.734100       -10.190110       880.504500      -130.351300        59.973590        -0.019684
1643124122.0000    306002.300000       -94.825450    305475.500000       145.288400    306223.700000        25.347270       893.752700       101.204200       901.955600       -19.722890       881.687300      -139.922300        59.973600         0.018539
1643124123.0000    305620.300000      -104.938800    305150.000000       135.174000    305872.700000        15.223410       895.752400        91.071530       903.235000       -29.885560       883.617000      -150.053800        59.971210        -0.021286
1643124124.0000    305709.700000      -115.203400    305219.800000       124.908800    305960.900000         4.957506       894.139900        80.759640       902.469600       -40.210650       883.436300      -160.331500        59.971210         0.004120
1643124125.0000    305457.600000      -125.863700    304929.800000       114.269700    305786.300000        -5.687025       894.389300        70.158230       904.027600       -50.832460       882.844900      -170.995400        59.968610        -0.038910
1643124126.0000    305760.600000      -136.943200    305249.400000       103.170300    306012.000000       -16.775240       894.540800        58.987330       902.452900       -61.955670       882.840900       177.865900        59.968030         0.002289
1643124127.0000    305749.900000      -148.563300    305240.900000        91.560490    306035.800000       -28.389480       896.585100        47.408120       903.850600       -73.521190       883.748400       166.402700        59.967620         0.011215
1643124128.0000    305850.500000      -159.850900    305304.900000        80.275880    306139.500000       -39.671200       893.337800        36.130890       900.816800       -84.811940       881.809000       155.031200        59.970200         0.031128
1643124129.0000    305895.300000      -171.171300    305369.400000        68.933920    306085.200000       -51.004460       896.341400        24.943270       903.737200       -96.078990       883.864900       143.877400        59.969110         0.008698
1643124130.0000    305836.800000       177.454800    305369.400000        57.577130    306133.100000       -62.376720       893.174200        13.436990       900.718800      -107.450000       880.538000       132.422000        59.968110         0.026321
1643124131.0000    305843.500000       165.970500    305315.300000        46.090400    306081.300000       -73.857020       893.175700         1.978290       901.089800      -118.936200       880.951000       120.902100        59.966300        -0.012817
1643124132.0000    305555.300000       153.817700    305061.400000        33.940570    305818.500000       -86.011490       895.811300       -10.154610       903.277700      -131.094900       883.415200       108.677000        59.964620        -0.020142
1643124133.0000    305941.500000       140.734100    305477.800000        20.853790    306242.100000       -99.102010       893.263200       -23.198580       901.681200      -144.129100       881.117700        95.727350        59.963040         0.006409
1643124134.0000    305909.800000       127.119100    305416.600000         7.235288    306171.300000      -112.715800       893.550800       -36.898990       901.330800      -157.811900       879.983000        82.043170        59.961830        -0.021057
1643124135.0000    305802.700000       112.877400    305284.500000        -7.007774    306041.800000      -126.951700       895.677900       -51.005010       903.170200      -171.993100       883.698500        67.864700        59.959380        -0.008469
1643124136.0000    306078.000000        98.403880    305557.000000       -21.471440    306327.500000      -141.421300       891.475600       -65.570340       900.131500       173.490300       881.134800        53.359320        59.960190        -0.033188
1643124137.0000    305907.000000        84.436870    305403.400000       -35.450520    306132.100000      -155.398200       895.703700       -79.439920       904.666800       159.574000       884.858800        39.449030        59.962940         0.052414
1643124138.0000    305904.800000        71.079410    305416.200000       -48.803940    306155.000000      -168.755200       899.306500       -92.765680       906.988300       146.237900       887.422900        26.189710        59.962990         0.010071
1643124139.0000    305792.300000        58.278020    305313.500000       -61.600560    306078.200000       178.439200       897.142500      -105.726400       905.985000       133.338200       886.588600        13.119450        59.966450         0.052185
1643124140.0000    305707.800000        45.629450    305186.200000       -74.252930    305943.800000       165.798800       902.113400      -118.327300       910.788100       120.751200       891.508100         0.610156        59.964320        -0.002975
1643124141.0000    305624.700000        33.607450    305148.200000       -86.275190    305903.000000       153.772200       900.064000      -130.371900       908.401100       108.745200       887.980800       -11.373950        59.969730         0.181503
1643124142.0000    305617.500000        21.866910    305133.000000       -98.013920    305920.700000       142.032700       902.887500      -142.050600       911.368300        96.947080       892.587800       -23.142740        59.965320        -0.054474
1643124143.0000    305516.300000        10.705490    305036.700000      -109.166900    305851.000000       130.878800       902.682300      -153.226300       909.877100        85.851610       891.281000       -34.280130        59.969460        -0.074844
1643124144.0000    305668.000000         0.285963    305163.800000      -119.594600    305971.100000       120.454500       901.296500      -163.645600       909.818400        75.464470       889.894900       -44.695670        59.970630        -0.019226          *
1643124145.0000    305763.900000        -9.862008    305245.100000      -129.744000    306025.800000       110.307800       901.545900      -173.659600       908.319400        65.382400       889.934000       -54.721070        59.973180        -0.052185
1643124146.0000    305723.800000       -19.554210    305175.100000      -139.431500    305990.400000       100.625800       901.289200       176.708000       908.984100        55.718320       888.083100       -64.428960        59.974760         0.033417
1643124147.0000    305560.200000       -29.033090    305049.700000      -148.916700    305819.200000        91.132770       902.072100       167.151300       910.257900        46.188410       890.868500       -73.968940        59.973140        -0.018539
1643124148.0000    305693.000000       -38.518680    305138.800000      -158.401600    305926.800000        81.657140       899.955000       157.664000       907.317400        36.622210       888.680400       -83.467610        59.975570         0.065689
1643124149.0000    305791.900000       -47.489430    305253.200000      -167.374500    306040.400000        72.679730       898.781000       148.613100       905.895600        27.676140       888.104500       -92.456730        59.976680         0.024261
1643124150.0000    306005.800000       -55.969250    305440.500000      -175.853200    306222.800000        64.209610       896.609700       140.233600       905.344700        19.162080       885.769500      -100.954900        59.979170         0.026779
1643124151.0000    305781.000000       -63.605800    305314.500000       176.515000    306075.800000        56.557420       897.587000       132.413600       905.512500        11.396200       886.234500      -108.731000        59.980500         0.019455
1643124152.0000    305678.700000       -70.568860    305189.300000       169.546200    305932.500000        49.597100       899.781600       125.482600       908.526200         4.547536       888.083000      -115.605200        59.981640        -0.000687
1643124153.0000    305690.400000       -77.025050    305207.600000       163.089700    305954.000000        43.136450       900.288800       118.915600       907.382600        -1.957728       888.542300      -122.124000        59.982730         0.016937
1643124154.0000    305996.900000       -82.890500    305519.800000       157.217700    306232.800000        37.266450       895.772600       113.087500       903.704700        -7.910736       885.034000      -127.962600        59.985830         0.017624
1643124155.0000    305909.800000       -87.911100    305386.900000       152.201900    306146.400000        32.255390       896.971200       108.049200       905.105800       -12.906360       884.937000      -133.101600        59.986400         0.043716
1643124156.0000    305856.400000       -92.298390    305406.600000       147.814000    306129.400000        27.862560       898.017800       103.731700       905.392200       -17.283170       885.722000      -137.344100        59.989150         0.006409
1643124157.0000    305918.200000       -96.114620    305414.800000       144.000400    306190.600000        24.048880       899.536400       100.016700       907.188000       -21.093170       887.378400      -141.134800        59.989170         0.023346
1643124158.0000    306346.300000       -99.344810    305862.100000       140.769000    306614.400000        20.817350       892.280900        96.733960       899.874300       -24.274870       880.282700      -144.392200        59.992400        -0.007553
1643124159.0000    306180.600000      -101.891800    305756.100000       138.226600    306499.300000        18.266920       894.273100        94.170970       901.720300       -26.847330       881.284800      -146.998600        59.993720         0.006638
1643124160.0000    306099.700000      -103.589300    305624.400000       136.516100    306336.900000        16.568470       894.980700        92.414520       902.736100       -28.564190       884.228600      -148.649300        59.996200         0.001144
1643124161.0000    306311.100000      -104.538100    305834.500000       135.575200    306577.200000        15.621640       892.988200        91.412630       900.639900       -29.531130       881.333300      -149.666300        59.997780        -0.009384
1643124162.0000    306293.100000      -105.016400    305827.100000       135.092400    306550.800000        15.141800       895.392000        90.950800       903.973300       -30.038980       884.319300      -150.101000        59.999170        -0.027695
1643124163.0000    306250.700000      -104.976800    305768.300000       135.140000    306535.800000        15.188810       895.121800        91.010700       902.945100       -29.974130       882.997700      -150.006300        59.999160        -0.018997
1643124164.0000    306287.000000      -105.016200    305806.800000       135.097300    306561.100000        15.147410       895.319300        91.009720       902.826900       -29.912320       883.465600      -150.057100        59.999300        -0.014191
1643124165.0000    306289.900000      -105.115300    305798.400000       134.996900    306518.600000        15.048780       891.802900        90.897100       898.944000       -30.064730       881.459600      -150.217100        59.999310         0.032272
1643124166.0000    306259.600000      -105.368800    305736.000000       134.731000    306428.700000        14.797360       893.491600        90.671120       901.612800       -30.287380       881.620300      -150.421800        59.997910         0.000916
1643124167.0000    306398.300000      -106.185400    305857.000000       133.912000    306537.100000        13.977960       893.179400        89.946500       900.410300       -31.072040       881.245400      -151.243300        59.998460         0.015793
1643124168.0000    306318.400000      -107.639300    305815.200000       132.478500    306539.600000        12.531260       887.450200        88.335710       894.965100       -32.671020       875.843800      -152.698800        59.995240        -0.017853
1643124169.0000    306339.300000      -109.531900    305822.300000       130.585200    306584.400000        10.637010       887.614900        86.600940       895.763800       -34.397440       876.483500      -154.549000        59.993800        -0.022888
1643124170.0000    306326.300000      -112.111800    305826.500000       127.999200    306533.200000         8.057847       887.745500        83.976460       895.827500       -37.029050       875.221100      -157.146700        59.991890         0.029068
1643124171.0000    306263.200000      -115.181600    305784.600000       124.934500    306495.900000         4.985760       886.698100        80.841120       895.309000       -40.106300       876.238100      -160.246200        59.988670        -0.098190
1643124172.0000    306213.700000      -119.110600    305723.000000       121.001700    306443.900000         1.057426       888.243300        76.945180       896.594300       -43.976070       877.313700      -164.133500        59.988050        -0.018082
1643124173.0000    306256.800000      -123.852100    305743.300000       116.256600    306448.700000        -3.684222       886.544700        72.194090       894.833100       -48.823380       875.177500      -168.927500        59.985720         0.013504
1643124174.0000    306213.000000      -129.528700    305718.800000       110.583400    306450.600000        -9.363724       890.418600        66.549910       897.835800       -54.464310       878.157200      -174.575000        59.981130        -0.065689
1643124175.0000    306281.400000      -136.252900    305778.400000       103.861300    306510.200000       -16.082140       888.044900        59.764040       896.850000       -61.187070       877.351000       178.659900        59.981350        -0.017166
1643124176.0000    306453.500000      -143.571400    305970.300000        96.537360    306657.000000       -23.406370       884.211800        52.451900       892.706700       -68.608150       872.494400       171.284800        59.980210         0.050812
1643124177.0000    306401.800000      -151.495200    305877.400000        88.623100    306627.700000       -31.318340       882.762900        44.547390       890.391300       -76.479540       870.035500       163.336200        59.978710         0.026321
1643124178.0000    306481.100000      -159.392600    305987.500000        80.725100    306728.000000       -39.225730       882.102600        36.548560       890.881100       -84.415330       870.829200       155.486400        59.977880         0.006409
1643124179.0000    306372.700000      -168.145500    305890.200000        71.971120    306597.800000       -47.979790       886.203200        27.895380       894.552400       -93.051590       875.714800       146.778700        59.974380         0.013046
