Terminal: LT 525  NOVA STA RITA - ITA C2
Tensão base: 525 kV
SOC inicial: 1643124120
SOC final: 1643124179
Taxa: 1 fasores/s
Total de frames faltantes: - 

Tempo_(SOC)           VA_mod_(V)     VA_ang_(graus)     VB_mod_(V)     VB_ang_(graus)     VC_mod_(V)     VC_ang_(graus)     IA_mod_(A)     IA_ang_(graus)     IB_mod_(A)     IB_ang_(graus)     IC_mod_(A)     IC_ang_(graus)     Frequência        Delta_Freq     Faltante
1643124120.0000    312040.200000      -137.761900    312821.300000       101.853200    309699.500000       -18.093240       639.175600        31.908160       628.404100       -87.488760       643.380000       152.357800        59.975420         0.005722
1643124121.0000    311930.000000      -146.903900    312625.700000        92.686320    309426.000000       -27.227940       639.941700        22.771500       630.175000       -96.634540       644.857500       143.144400        59.973340        -0.090408
1643124122.0000    312021.500000      -156.343500    312875.800000        83.251110    309604.900000       -36.695780       639.811200        13.349340       629.422000      -105.960500       645.000500       133.808000        59.974180         0.094528
1643124123.0000    311977.300000      -166.249600    312706.200000        73.419260    309842.400000       -46.539990       639.444400         3.430821       627.776400      -116.013400       642.550100       123.953400        59.971120         0.007324
1643124124.0000    312131.300000      -176.423800    312879.200000        63.207550    309842.700000       -56.736630       639.278700        -6.737982       627.686900      -126.098100       643.183900       113.788900        59.973190         0.074158
1643124125.0000    312122.000000       172.868900    312919.800000        52.458180    309659.600000       -67.474500       639.017400       -17.417710       628.941700      -136.789700       643.477300       102.986300        59.973550         0.189743
1643124126.0000    312028.600000       161.606800    312761.900000        41.258820    309832.900000       -78.695140       639.411100       -28.703590       627.910900      -148.130100       642.773900        91.790670        59.967320         0.018311
1643124127.0000    311866.100000       149.944600    312604.600000        29.590420    309613.400000       -90.361340       640.241300       -40.356240       628.994200      -159.783800       644.200400        80.151170        59.967240         0.090408
1643124128.0000    312119.800000       138.833000    312958.400000        18.438710    309755.600000      -101.510300       639.004800       -51.499100       628.478900      -170.820000       643.893400        69.004600        59.969990         0.008926
1643124129.0000    312168.300000       127.223900    312866.600000         6.811628    309637.400000      -113.106000       639.580300       -63.006470       629.631600       177.569700       644.029400        57.393900        59.968750        -0.030212
1643124130.0000    312145.600000       115.968900    312833.300000        -4.398635    309845.400000      -124.336700       640.054100       -74.272450       629.311100       166.228100       643.455000        46.119260        59.968410         0.038681
1643124131.0000    311890.100000       104.298700    312503.500000       -16.113500    309315.700000      -136.015200       640.548600       -85.970580       630.769000       154.556500       644.665100        34.406970        59.967500         0.053101
1643124132.0000    311907.300000        92.004060    312806.000000       -28.397950    309535.300000      -148.349600       639.945700       -98.326070       629.344700       142.346600       644.941600        22.185200        59.966470         0.017395
1643124133.0000    312004.800000        79.054940    312823.200000       -41.326730    309677.900000      -161.275900       640.304400      -111.129600       629.361400       129.448500       644.409600         9.297666        59.961510        -0.110779
1643124134.0000    311991.100000        65.526720    312620.000000       -54.914020    309295.700000      -174.811300       640.389100      -124.712700       630.721200       115.834900       644.372100        -4.407929        59.961980        -0.072098
1643124135.0000    312139.200000        51.268570    312799.000000       -69.125110    309691.400000       170.954600       640.062400      -138.949200       629.167100       101.565000       643.975800       -18.557640        59.960250        -0.002518
1643124136.0000    312089.100000        36.765480    312875.100000       -83.620580    309727.700000       156.433700       640.480100      -153.458200       630.031700        87.159880       644.480000       -33.000570        59.958260        -0.065231
1643124137.0000    312151.400000        22.708800    312857.800000       -97.682010    309728.900000       142.389200       640.174800      -167.526600       629.388500        73.064040       644.590100       -47.109920        59.961430        -0.019913
1643124138.0000    312237.600000         9.262277    312961.500000      -111.126900    309841.300000       128.948100       640.455900       179.041600       629.602800        59.614520       644.699300       -60.555550        59.965130         0.035477
1643124139.0000    311912.400000        -3.466655    312743.600000      -123.879100    309445.300000       116.182700       640.283100       166.264400       630.085300        46.894290       645.575000       -73.326340        59.965150         0.035248
1643124140.0000    311953.100000       -16.074630    312753.800000      -136.433500    309729.900000       103.605300       641.106400       153.644300       629.495100        34.267510       644.886700       -85.889340        59.966750         0.049896
1643124141.0000    312086.900000       -28.091540    312753.600000      -148.474400    309672.500000        91.598000       640.109500       141.687400       629.265400        22.268450       644.005600       -97.881780        59.968170         0.077362
1643124142.0000    311954.100000       -39.879200    312627.800000      -160.248500    309616.600000        79.816600       640.864900       129.905200       629.609900        10.427500       644.091000      -109.682800        59.967960         0.088120
1643124143.0000    311935.700000       -51.006130    312732.100000      -171.359600    309717.300000        68.684710       641.034500       118.668700       629.395900        -0.732023       644.340900      -120.828200        59.969260         0.047150
1643124144.0000    312190.200000       -61.485740    312815.700000       178.121000    309734.900000        58.208400       639.806900       108.245300       629.629500       -11.183000       643.914100      -131.332300        59.971870         0.003204
1643124145.0000    312055.900000       -71.667670    312747.600000       167.913300    309480.200000        48.002500       640.336100        98.050620       631.053100       -21.318810       644.927700      -141.585500        59.971320        -0.050812
1643124146.0000    311996.500000       -81.326340    312681.500000       158.306500    309662.300000        38.370040       641.117800        88.402600       629.979100       -31.021820       644.532500      -151.130000        59.974580         0.032959
1643124147.0000    312262.800000       -90.830280    312982.000000       148.781500    309874.000000        28.850970       639.136700        78.928540       628.756600       -40.491220       643.399000      -160.689900        59.972650        -0.040970
1643124148.0000    312123.000000      -100.208000    312908.700000       139.401000    309742.800000        19.458290       639.355300        69.488040       628.487300       -49.841810       643.749500      -170.017000        59.973910        -0.056534
1643124149.0000    312178.500000      -109.250200    312938.400000       130.349400    309732.800000        10.416480       639.109100        60.518370       628.382600       -58.869700       643.309800      -179.108000        59.975290        -0.030899
1643124150.0000    312203.300000      -117.837600    312928.300000       121.758700    309713.800000         1.830985       639.936800        51.913070       629.405200       -67.457760       644.462500       172.346700        59.976900        -0.036621
1643124151.0000    311805.900000      -125.426200    312478.800000       114.219300    309542.300000        -5.720416       641.822300        44.299820       630.511700       -75.169230       645.483300       164.729100        59.979900        -0.017853
1643124152.0000    312078.600000      -132.341900    312814.700000       107.288000    309761.000000       -12.654370       641.303000        37.377390       630.053800       -82.019130       644.942500       157.852400        59.981830         0.040054
1643124153.0000    312265.800000      -138.718900    313056.200000       100.888700    309879.400000       -19.054670       639.203100        31.034560       628.803800       -88.327870       643.436800       151.467900        59.982700        -0.006866
1643124154.0000    312191.900000      -144.535600    312991.100000        95.065260    309796.900000       -24.871480       639.062400        25.199290       628.449500       -94.136930       643.583900       145.707000        59.985300         0.005951
1643124155.0000    311943.600000      -149.743800    312812.800000        89.860880    309562.300000       -30.089740       641.325000        19.974800       630.697700       -99.330970       646.525000       140.476000        59.988910         0.000458
1643124156.0000    311829.200000      -153.834000    312573.600000        85.807770    309563.300000       -34.142780       642.213300        15.889070       631.024200      -103.541900       645.723600       136.360000        59.988080         0.022888
1643124157.0000    312203.400000      -157.734000    312994.800000        81.870830    309790.300000       -38.072880       639.995500        12.049680       629.645500      -107.316300       644.500400       132.478900        59.991670         0.018082
1643124158.0000    312214.200000      -161.162200    312973.500000        78.447930    309816.600000       -41.490910       639.635800         8.604069       629.090100      -110.779300       643.920400       129.087200        59.992840         0.070953
1643124159.0000    311979.100000      -163.586300    312771.900000        76.039420    309683.200000       -43.915410       640.954600         6.184046       629.631700      -113.232300       644.636200       126.628500        59.994360        -0.020370
1643124160.0000    312150.600000      -165.370500    312852.300000        74.240970    309733.700000       -45.686870       640.801900         4.429394       630.113600      -114.994700       644.632400       124.846600        59.997270        -0.066834
1643124161.0000    312058.600000      -166.249600    312870.400000        73.365010    309712.700000       -46.582570       640.347200         3.505347       629.419400      -115.851100       644.723300       123.988700        59.996700        -0.043030
1643124162.0000    311937.800000      -166.906400    312650.700000        72.705440    309536.800000       -47.227460       641.853500         2.865835       631.209000      -116.537700       645.564300       123.340600        59.996740        -0.079880
1643124163.0000    311935.400000      -167.025900    312600.800000        72.595190    309548.300000       -47.331290       642.078500         2.794248       631.174800      -116.611600       645.831500       123.235700        60.001600        -0.022659
1643124164.0000    312014.900000      -166.968600    312790.700000        72.643460    309652.600000       -47.298000       641.250100         2.827385       630.176200      -116.540400       645.146400       123.277500        60.001780        -0.040741
1643124165.0000    312163.200000      -166.906900    312966.600000        72.709500    309814.100000       -47.240500       639.840700         2.866303       628.881000      -116.508000       643.969700       123.312700        59.999010        -0.008698
1643124166.0000    311901.400000      -167.368000    312441.100000        72.204760    309217.300000       -47.681750       640.649800         2.384598       631.516200      -117.062000       645.084100       122.686200        59.996610        -0.073929
1643124167.0000    311749.100000      -168.315600    312717.300000        71.263760    309318.800000       -48.691020       639.739400         1.291288       629.564000      -118.006300       645.253800       121.753000        60.001130         0.168457
1643124168.0000    311841.300000      -169.428700    312872.800000        70.155880    309460.900000       -49.806240       639.439100         0.247651       629.797000      -119.074300       645.046800       120.711100        59.993230        -0.001144
1643124169.0000    311677.600000      -171.505600    312412.900000        68.168820    309571.100000       -51.795780       641.970500        -1.769534       629.654700      -121.256500       645.137800       118.740600        59.993910         0.036850
1643124170.0000    311844.200000      -173.967500    312532.000000        65.626500    309341.400000       -54.289380       641.043000        -4.217236       630.866700      -123.632500       645.407800       116.175300        59.992600         0.060883
1643124171.0000    312094.700000      -177.127600    312969.200000        62.467260    309682.200000       -57.478620       638.510500        -7.351238       628.232000      -126.724100       643.406300       113.095900        59.990690        -0.005493
1643124172.0000    311930.700000       178.864700    312550.800000        58.446940    309338.900000       -61.454650       640.780400       -11.349690       630.538100      -130.824700       644.907700       109.009900        59.987050        -0.009842
1643124173.0000    312140.000000       174.199000    312973.000000        53.813550    309805.200000       -66.136980       638.177300       -16.052550       627.112100      -135.415700       642.625700       104.405400        59.986740         0.019455
1643124174.0000    311814.600000       168.252600    312843.200000        47.832320    309410.200000       -72.133750       638.522900       -22.156700       628.658900      -141.381800       644.596500        98.343830        59.980980        -0.115356
1643124175.0000    312037.300000       161.633600    312872.300000        41.250440    309717.800000       -78.703990       639.151900       -28.615040       628.022500      -147.996000       643.291900        91.855490        59.979840        -0.053329
1643124176.0000    312182.000000       154.190700    312978.500000        33.811290    309822.400000       -86.140460       637.749100       -36.045930       626.759000      -155.414800       642.036500        84.439780        59.978680         0.005035
1643124177.0000    311885.700000       146.396900    312633.900000        25.966650    309303.800000       -93.949260       639.157100       -43.921250       629.434400      -163.308000       644.025300        76.429080        59.977360        -0.088806
1643124178.0000    311932.400000       138.362700    312659.400000        17.980790    309574.200000      -101.955500       639.995500       -51.885620       629.310800      -171.303600       644.251700        68.612300        59.977900         0.104141
1643124179.0000    312146.800000       129.629200    312931.200000         9.242040    309787.300000      -110.703200       638.339500       -60.609550       627.232700       179.992900       642.591900        59.855890        59.974470        -0.054245
