Terminal: LT 525  AREIA - BENTO MUNHOZ C2
Tensão base: 525 kV
SOC inicial: 1643124120
SOC final: 1643124179
Taxa: 1 fasores/s
Total de frames faltantes: - 

Tempo_(SOC)           VA_mod_(V)     VA_ang_(graus)     VB_mod_(V)     VB_ang_(graus)     VC_mod_(V)     VC_ang_(graus)     IA_mod_(A)     IA_ang_(graus)     IB_mod_(A)     IB_ang_(graus)     IC_mod_(A)     IC_ang_(graus)     Frequência        Delta_Freq     Faltante
1643124120.0000    313184.900000      -113.266300    314016.100000       126.772500    313609.500000         6.595643       596.166400        72.874820       621.993300       -48.704850       649.346400      -166.686500        59.974940        -0.007095
1643124121.0000    313121.500000      -122.373500    314051.900000       117.690800    313714.800000        -2.511338       596.911300        63.794960       621.379800       -57.713820       650.443200      -175.624200        59.974510        -0.022430
1643124122.0000    313099.400000      -131.811500    313952.000000       108.246100    313627.800000       -11.944870       597.271400        54.441700       622.350700       -67.094280       650.754200       174.988300        59.973430         0.030212
1643124123.0000    313152.900000      -141.748200    314063.000000        98.318510    313750.800000       -21.886650       597.446800        44.572630       622.144900       -76.920010       651.256400       165.154900        59.973060         0.030899
1643124124.0000    313213.200000      -151.937000    314074.800000        88.129750    313782.700000       -32.064330       597.347400        34.439010       622.035200       -87.129300       650.589300       154.980100        59.971280         0.006409
1643124125.0000    313125.600000      -162.648500    313977.100000        77.388310    313542.200000       -42.791980       597.983000        23.565890       623.810000       -98.003020       651.499300       144.007600        59.970410         0.039597
1643124126.0000    313102.800000      -173.890100    314024.300000        66.157230    313614.800000       -54.036930       597.218000        12.307100       622.781200      -109.219000       650.917100       132.786400        59.967890        -0.007553
1643124127.0000    313096.800000       174.487300    313936.300000        54.560520    313696.900000       -65.635340       596.753800         0.618184       621.011800      -120.918100       649.744800       121.195600        59.967690         0.011444
1643124128.0000    313154.400000       163.327600    313996.100000        43.379490    313648.000000       -76.805080       597.749600       -10.431560       623.344100      -131.966100       651.503100       110.054600        59.968170         0.007324
1643124129.0000    313135.400000       151.777100    314004.500000        31.814860    313584.000000       -88.367530       597.423100       -22.048730       623.009200      -143.554300       651.129600        98.411700        59.968120         0.032272
1643124130.0000    313274.800000       140.481400    314156.000000        20.549780    313871.000000       -99.650030       597.786600       -33.146440       622.432500      -154.657900       651.230300        87.389530        59.970140         0.082855
1643124131.0000    312982.700000       128.865300    313896.000000         8.907665    313467.000000      -111.280700       598.091600       -45.024380       623.713300      -166.568200       652.177900        75.439480        59.967270         0.021057
1643124132.0000    313017.700000       116.560700    313899.400000        -3.409325    313445.700000      -123.588800       597.582200       -57.337480       623.675200      -178.845100       651.823200        63.086970        59.965690        -0.008011
1643124133.0000    313002.900000       103.617000    313991.400000       -16.338330    313545.600000      -136.539200       596.786100       -70.294660       622.234400       168.245500       651.184300        50.203080        59.962520        -0.087662
1643124134.0000    313016.400000        90.075460    313904.300000       -29.891000    313438.500000      -150.069200       596.953900       -83.807260       623.015200       154.612100       650.932100        36.631340        59.961690         0.005722
1643124135.0000    313164.800000        75.807210    314039.800000       -44.145350    313661.500000      -164.333300       597.377200       -97.937970       622.833300       140.513500       651.191600        22.554880        59.959790        -0.016022
1643124136.0000    313143.900000        61.326910    314048.400000       -58.617930    313705.400000      -178.809500       597.379000      -112.477400       622.533800       125.984500       650.986100         8.055126        59.958990        -0.050354
1643124137.0000    313121.300000        47.254830    313955.600000       -72.689070    313647.800000       167.125600       598.016200      -126.627000       623.163600       111.815300       651.103900        -6.103767        59.962680         0.042801
1643124138.0000    313276.500000        33.810790    314139.300000       -86.119910    313862.300000       153.685000       597.018800      -139.954400       621.418800        98.481440       649.900400       -19.403630        59.964160        -0.011444
1643124139.0000    313042.600000        21.087680    313938.100000       -98.874970    313495.700000       140.940300       597.877700      -152.766100       623.591900        85.705890       651.774500       -32.313100        59.965490         0.048065
1643124140.0000    313174.600000         8.485976    314068.300000      -111.452200    313718.200000       128.345700       598.085000      -165.362100       623.003400        73.109540       651.616000       -44.836410        59.966060         0.021744
1643124141.0000    313054.100000        -3.547389    313900.700000      -123.499800    313544.600000       116.318500       597.945700      -177.503800       623.429600        60.937770       651.247000       -57.013920        59.967810         0.039139
1643124142.0000    313047.000000       -15.306300    313939.900000      -135.263500    313499.400000       104.550000       597.568800       170.757600       623.174100        49.211730       650.847200       -68.775430        59.966880        -0.004578
1643124143.0000    313119.400000       -26.460450    314057.900000      -146.402800    313712.200000        93.395940       597.669800       159.806400       622.566600        38.300490       651.654600       -79.661960        59.968650        -0.022430
1643124144.0000    313202.300000       -36.947270    314071.800000      -156.893600    313718.100000        82.917880       597.928000       149.340900       623.036400        27.832380       651.426500       -90.131990        59.971510         0.019913
1643124145.0000    313074.700000       -47.111420    313959.400000      -167.048600    313647.100000        72.757280       597.767800       138.976300       622.479700        17.439660       650.949400      -100.467500        59.972690        -0.001144
1643124146.0000    313049.700000       -56.760030    313899.100000      -176.692800    313628.800000        63.115430       598.939400       129.280700       623.848100         7.738782       652.173900      -110.188600        59.975290         0.094299
1643124147.0000    313130.300000       -66.308980    314001.300000       173.739700    313646.200000        53.553200       598.727300       119.920300       623.876800        -1.607613       652.336500      -119.559800        59.973120        -0.038223
1643124148.0000    313078.100000       -75.686520    313918.300000       164.356000    313563.100000        44.179520       599.828400       110.489400       625.363700       -11.115460       653.299600      -129.058000        59.973670        -0.078049
1643124149.0000    313111.900000       -84.724780    313954.400000       155.316700    313570.000000        35.138460       600.879500       101.402500       626.609100       -20.164610       654.575500      -138.141000        59.976060         0.017853
1643124150.0000    313182.600000       -93.270050    313992.500000       146.774800    313627.400000        26.602390       600.263600        92.919000       625.666800       -28.687890       653.580600      -146.615400        59.977620         0.061569
1643124151.0000    313127.500000      -100.796200    314011.300000       139.264600    313682.200000        19.072590       601.381000        85.402000       626.313400       -36.133620       655.085600      -154.057200        59.980110         0.029068
1643124152.0000    313224.300000      -107.746900    314113.300000       132.310300    313779.500000        12.118270       601.534900        78.550530       626.760300       -43.004550       655.037400      -160.929800        59.981480        -0.029297
1643124153.0000    313140.700000      -114.156400    314081.300000       125.893600    313687.900000         5.695051       602.938100        71.932280       628.356400       -49.568970       657.034700      -167.542600        59.983310         0.035934
1643124154.0000    313077.500000      -119.977700    313927.800000       120.055800    313501.600000        -0.120956       603.203700        66.199410       629.629500       -55.352220       657.594400      -173.364900        59.985420         0.009384
1643124155.0000    313149.400000      -125.086500    314032.200000       114.962100    313646.600000        -5.223697       603.933700        61.024020       629.558500       -60.489510       658.001100      -178.488600        59.986890        -0.006409
1643124156.0000    313086.700000      -129.189200    314036.400000       110.869800    313668.400000        -9.330756       605.665500        57.096290       631.104300       -64.398760       660.441100       177.637800        59.988700        -0.003662
1643124157.0000    313172.100000      -133.135000    314064.200000       106.919900    313707.900000       -13.274990       606.123800        53.129230       631.872100       -68.410450       660.634000       173.656700        59.990300         0.046921
1643124158.0000    313121.000000      -136.565800    314024.300000       103.491600    313661.800000       -16.701370       606.276700        49.687530       631.788500       -71.816690       660.560100       170.217800        59.991780        -0.013275
1643124159.0000    312942.800000      -138.954500    313852.600000       101.109800    313554.300000       -19.090610       607.469900        47.134010       632.619100       -74.381730       662.042300       167.692300        59.993950         0.001373
1643124160.0000    313133.900000      -140.735000    314036.300000        99.310650    313636.700000       -20.878150       607.556500        45.383380       633.611500       -76.171380       662.130900       165.874500        59.996310        -0.026550
1643124161.0000    313042.000000      -141.640200    313934.800000        98.410610    313579.000000       -21.779030       608.609600        44.474530       633.931800       -77.050420       662.972600       164.991900        59.997800        -0.022888
1643124162.0000    312968.800000      -142.211200    313893.400000        97.828870    313451.100000       -22.359640       608.712900        43.798950       634.936700       -77.713690       663.926300       164.274300        59.997360        -0.110092
1643124163.0000    312872.700000      -142.314700    313718.800000        97.726430    313351.600000       -22.448680       610.043700        43.671270       636.136100       -77.910260       664.219100       164.143100        59.999990         0.004578
1643124164.0000    312928.100000      -142.289500    313898.700000        97.743480    313408.600000       -22.448140       609.351400        43.726910       635.968300       -77.762630       664.688500       164.202300        60.001320         0.018539
1643124165.0000    312929.300000      -142.293400    313936.300000        97.759090    313513.700000       -22.444450       609.643100        43.749610       635.231000       -77.748730       665.027000       164.279600        59.999370        -0.004578
1643124166.0000    312888.600000      -142.722200    313728.900000        97.343150    313452.500000       -22.845270       610.973800        43.300800       636.072000       -78.262300       664.953400       163.817000        59.998110        -0.000229
1643124167.0000    312877.900000      -143.707300    313880.200000        96.332470    313394.700000       -23.867060       609.328400        42.202950       635.529500       -79.273580       664.992400       162.717300        59.998280         0.042801
1643124168.0000    312892.600000      -144.818500    313937.500000        95.214550    313413.100000       -24.989590       610.252100        41.260200       636.664300       -80.208850       666.345500       161.734400        59.995580        -0.030670
1643124169.0000    312826.200000      -146.818000    313796.300000        93.250890    313476.300000       -26.957760       610.465800        39.111240       635.454900       -82.393320       665.216200       159.679600        59.993530         0.006409
1643124170.0000    312962.300000      -149.320400    313815.200000        90.735600    313478.800000       -29.449860       611.001700        36.783410       636.591100       -84.765080       665.299700       157.283700        59.992080         0.032043
1643124171.0000    312956.300000      -152.560900    313887.000000        87.482550    313466.100000       -32.710310       609.644900        33.436920       635.709700       -88.096570       664.703000       153.930600        59.990090         0.011902
1643124172.0000    312947.200000      -156.504000    313808.100000        83.546400    313435.100000       -36.636360       610.017900        29.439210       635.813900       -92.136570       664.161100       149.920800        59.988800         0.051498
1643124173.0000    312935.900000      -161.252800    313855.300000        78.796360    313457.800000       -41.395970       610.080700        24.757990       635.641500       -96.788550       664.628800       145.253300        59.985870        -0.023346
1643124174.0000    312926.200000      -167.191300    313811.900000        72.847970    313388.300000       -47.331990       609.379800        18.651740       635.454700      -102.890400       664.037000       139.103400        59.982620         0.008240
1643124175.0000    312929.200000      -173.795700    313856.200000        66.259670    313502.800000       -53.938470       609.247100        12.169860       634.828500      -109.352600       663.799800       132.717700        59.980150        -0.032272
1643124176.0000    312898.300000       178.715700    313799.400000        58.781110    313500.300000       -61.417960       609.156400         4.676853       634.487500      -116.869900       663.550000       125.198600        59.977740        -0.023575
1643124177.0000    312996.200000       170.965000    313868.600000        51.012840    313495.600000       -69.168380       608.860200        -3.039041       635.060700      -124.591400       663.270800       117.445400        59.978610        -0.002975
1643124178.0000    312898.500000       162.962300    313760.300000        43.005710    313377.000000       -77.179080       608.876300       -11.125060       635.051600      -132.682600       663.501000       109.343800        59.977470         0.039825
1643124179.0000    312915.200000       154.170100    313865.800000        34.216660    313457.800000       -85.979840       608.377800       -19.904920       634.094700      -141.418900       663.423600       100.605300        59.975260         0.001831
