Terminal: LT 500  PARNAIBA III - BACABEIRA C1
Tensão base: 500 kV
SOC inicial: 1643124120
SOC final: 1643124179
Taxa: 1 fasores/s
Total de frames faltantes: - 

Tempo_(SOC)           VA_mod_(V)     VA_ang_(graus)     VB_mod_(V)     VB_ang_(graus)     VC_mod_(V)     VC_ang_(graus)     IA_mod_(A)     IA_ang_(graus)     IB_mod_(A)     IB_ang_(graus)     IC_mod_(A)     IC_ang_(graus)     Frequência        Delta_Freq     Faltante
1643124120.0000       864.878400      -177.130100       971.188500      -129.671900      1064.932000      -114.642100         0.595304       123.313400         0.498810       -60.340020         0.410132       172.360800        60.052780         3.555222
1643124121.0000       866.884800       174.842100       959.228600      -138.859700      1066.216000      -123.623500         0.651071       120.992500         0.486894       -31.760540         0.116979       134.744200        59.993840         1.939774
1643124122.0000       865.118000       164.964000       969.696200      -147.584500      1063.508000      -133.329200         0.624390       139.283000         0.107432      -179.650300         0.799564       124.605400        60.046070        -0.972290
1643124123.0000       852.273700       154.753000       968.547200      -158.189900      1067.391000      -141.908100         0.644775        84.131240         0.261176       -76.386220         0.256209      -136.852600        60.067920         6.061935
1643124124.0000       869.754800       144.424600       973.309600      -168.353000      1065.615000      -153.642900         0.570228        44.741630         0.308174        26.869270         0.027783        99.654720        59.951820        -3.599396
1643124125.0000       866.263300       133.920800       967.157300      -178.724900      1061.455000      -163.743200         0.495063       117.792900         0.043261        -3.715021         0.489522       111.400700        59.991550        -3.205261
1643124126.0000       862.364300       122.837800       965.795200       170.020300      1069.241000      -175.395400         0.459419       -29.214910         0.797497       122.623600         0.929626       124.367700        59.987860        -0.171433
1643124127.0000       866.402100       111.823600       962.710900       158.642500      1057.711000       173.347000         1.112210        23.993090         0.238216       -22.495560         0.163021       116.934200        60.028340        -0.755081
1643124128.0000       864.920700        99.831220       971.664700       146.719900      1067.036000       161.837500         0.494551        45.310170         0.526962      -110.308200         0.223421       150.682900        59.882970        -9.476166
1643124129.0000       867.897800        88.163500       965.225800       135.294000      1063.301000       151.108000         0.771123        21.626830         0.273728       -48.637370         0.447225        36.932220        59.902790        -6.796188
1643124130.0000       859.079400        78.026780       969.720600       124.381500      1060.668000       139.087800         0.285901        29.150270         0.354939       135.374200         0.407563        49.601260        60.092330        11.281360
1643124131.0000       860.884300        66.063720       964.509400       112.158800      1060.608000       127.624100         0.426789        43.459630         0.634780      -113.991300         0.305173        93.499920        59.897800        -2.469406
1643124132.0000       860.833900        54.125900       972.972400       100.596500      1065.799000       115.849200         0.408479         2.992944         0.601396       166.885500         0.371099        94.740910        60.016830         3.028336
1643124133.0000       862.440400        41.204820       964.991700        87.608510      1069.731000       102.701700         0.563240       -47.388210         0.308259        85.460850         0.603775        96.664380        59.923800        -2.218552
1643124134.0000       864.432500        27.510580       971.120100        73.412110      1079.398000        89.390370         0.293505        41.237660         0.312062       155.722100         0.271197         2.706530        59.960660         3.185349
1643124135.0000       863.874900        11.914910       964.158600        59.760570      1064.677000        74.866260         0.583382       -38.877130         0.511451       -69.653920         0.490288        46.138940        59.970380         0.338516
1643124136.0000       856.823200        -2.574535       970.848200        45.323200      1066.123000        60.181640         0.431976       -96.567850         0.221410      -153.461400         0.149210        52.895940        59.996660        -1.520691
1643124137.0000       869.415600       -15.769090       976.076800        31.573150      1058.795000        45.936530         0.231173       -49.873430         0.365852        41.820750         0.196271      -133.298100        59.937330        -5.887756
1643124138.0000       868.185400       -28.454670       972.389200        18.133460      1073.604000        32.474890         0.363688      -152.300500         0.180979       -74.838580         0.680274       -46.735310        60.063690         4.682007
1643124139.0000       865.389600       -42.288520       973.044600         4.670646      1059.806000        20.481710         0.568544      -119.921500         0.217270       -32.298020         0.482867       -56.574440        59.822070        -8.402481
1643124140.0000       858.747000       -54.118820       963.314400        -6.907514      1068.755000         7.333329         0.548004       -99.220690         0.198486       150.494000         0.306084       -41.664480        60.002150         1.016693
1643124141.0000       859.141500       -66.155990       964.026000       -19.806940      1070.558000        -3.954978         0.116456        -1.360185         0.260812       143.507200         0.098012      -115.226200        59.869300        -7.127151
1643124142.0000       868.085500       -78.088400       971.087400       -31.230520      1073.960000       -15.424290         0.532316      -167.979900         0.260797       -39.096240         0.638557      -118.686600        59.922470         0.443344
1643124143.0000       857.708200       -88.580670       968.719700       -41.960650      1057.174000       -27.256470         0.279887       163.538100         0.509957      -153.111500         0.504126       -74.958340        59.932350        -5.512161
1643124144.0000       862.159700      -100.051200       964.427200       -52.672920      1063.805000       -38.356690         0.370630       132.858000         0.378489       -89.952080         0.391775      -142.297700        59.988120         3.080521
1643124145.0000       861.252100      -109.885300       967.960700       -62.666010      1064.408000       -47.668460         0.636379       134.569300         0.441000        52.620910         0.256564        72.929270        59.915870        -3.779526
1643124146.0000       868.581600      -119.348300       957.505900       -73.018310      1067.452000       -58.144640         0.581688      -136.626100         0.303462        50.424260         0.670096       177.634500        59.854110        -2.003632
1643124147.0000       875.102700      -127.873000       978.089300       -82.128360      1066.332000       -66.323970         0.464378       135.199400         0.699224      -112.700400         0.754393      -130.941300        59.878110        -6.133118
1643124148.0000       854.248300      -139.510400       963.720800       -90.969060      1063.414000       -76.869250         0.736294       167.633600         0.431168       -76.207710         0.460725      -123.243100        60.018130        -5.042038
1643124149.0000       864.816000      -147.117300       971.364600       -99.801650      1059.809000       -86.002250         0.192729        68.101680         0.346181       -34.385910         0.607948       146.941600        60.014100        -4.101563
1643124150.0000       870.036900      -155.950300       975.172000      -109.365800      1070.780000       -94.030260         0.556662        62.901960         0.744597       -70.458520         0.445109      -103.296700        59.861710        -3.515625
1643124151.0000       876.022900      -163.574400       962.231800      -116.450900      1066.551000      -101.730300         0.482461        71.662890         0.631007      -108.697800         0.383918      -160.645400        60.066570         3.668747
1643124152.0000       864.766400      -169.948900       976.548300      -123.263100      1063.173000      -108.877600         0.730295       128.391800         0.877534       -61.775740         0.259083       -68.795390        59.966150        -0.070724
1643124153.0000       861.874900      -177.518800       967.567300      -130.065000      1055.425000      -114.903000         0.110622       -69.044270         0.437982       -44.081220         0.686900       157.308600        59.939900        -4.567337
1643124154.0000       868.687200       176.605500       975.521700      -136.544700      1071.542000      -120.795200         0.338015        68.630640         0.524199       -63.150740         0.475794       132.336000        59.923080         1.409683
1643124155.0000       858.720800       172.535100       958.646600      -140.929600      1064.753000      -126.160900         0.647553        72.176190         0.719693       -72.225070         0.574748       160.307900        60.012950         2.745895
1643124156.0000       865.978900       167.798600       968.244200      -145.002600      1070.723000      -130.802500         0.401733        93.027700         0.717817        12.856450         0.480843       168.472100        60.073350         4.918671
1643124157.0000       867.441600       163.761400       958.687500      -149.756800      1069.934000      -134.857100         0.419783       102.960000         0.216848       125.574800         0.435747       122.500500        59.913270         3.680420
1643124158.0000       874.294100       160.044300       963.140000      -152.993000      1068.358000      -137.244100         0.493471        50.117800         0.370155       178.123400         0.183345       -72.820370        59.964990         3.121948
1643124159.0000       869.469500       158.483600       962.135500      -155.108600      1066.411000      -140.503700         0.327425        82.642420         0.595024        34.863770         0.530681       123.740400        59.908120        -7.589722
1643124160.0000       859.881200       156.142400       970.770100      -156.682800      1064.529000      -142.033000         0.538060       130.488000         0.809230       -60.153740         0.099554      -126.990300        60.069020         5.727310
1643124161.0000       870.598500       155.540600       982.241300      -157.816100      1072.940000      -143.043500         0.530152        79.989450         0.137933       -65.785790         0.191840      -138.896500        60.057790         0.122681
1643124162.0000       863.347000       154.048100       964.898300      -158.312700      1072.477000      -142.806200         1.218781        82.173400         0.650579      -107.048000         0.858992       141.915800        59.922320        -0.934296
1643124163.0000       858.756200       154.758100       966.492500      -158.789900      1065.528000      -143.314600         0.241453      -111.783800         0.684564      -109.122600         0.744409       124.231600        59.953590        -1.305542
1643124164.0000       871.175100       154.051700       965.103000      -158.387400      1070.969000      -143.901600         0.544660        57.853010         0.220471      -174.687700         0.163819        98.208850        60.086940         3.386307
1643124165.0000       880.095500       153.905900       965.982500      -158.790800      1067.863000      -143.200900         0.477052        67.463950         0.124376       -33.076970         0.170217      -175.426400        60.035900         1.777725
1643124166.0000       857.462100       154.917100       969.410200      -158.362900      1058.312000      -143.492200         0.357298       139.015200         0.291541      -143.769200         0.452646       156.202000        59.947210        -6.561127
1643124167.0000       877.189200       153.696800       970.266300      -159.463300      1074.855000      -144.515800         0.632155       111.006700         0.562370       -85.127700         0.418359       151.111800        59.955560        -6.437531
1643124168.0000       866.715200       151.922200       956.917100      -161.486000      1060.187000      -146.231500         0.626584       143.863200         0.544826       -87.183830         0.151710      -172.864000        60.005920         0.424805
1643124169.0000       861.890500       150.182300       962.532800      -163.368500      1070.324000      -148.487600         0.384403        39.656910         0.582122      -121.858500         0.397610       165.877500        60.039880         4.094467
1643124170.0000       867.204200       147.658600       974.081300      -166.230800      1076.034000      -150.417500         0.210772       -18.737390         0.215542        -0.260006         0.437363       127.872600        59.875530        -3.286972
1643124171.0000       864.828700       144.231300       974.653300      -168.735700      1066.166000      -153.731800         0.954651        75.058110         0.577618      -102.230000         0.485734       146.056900        59.981250         2.743607
1643124172.0000       856.377800       140.758700       969.532700      -172.483800      1063.293000      -157.251100         0.328674       -37.393280         0.490575       165.287900         0.394669       103.820400        59.933230        -5.358353
1643124173.0000       861.112200       136.005700       965.975200      -177.782900      1051.569000      -162.822700         0.516626        15.878970         0.646634      -148.267000         0.422434       151.507800        59.935660        -0.437164
1643124174.0000       866.098900       129.779200       971.105000       177.030800      1074.359000      -168.484700         0.305662        26.298340         0.339067       144.678600         0.235086        97.049320        60.000560         0.077820
1643124175.0000       873.518800       123.676400       969.089900       169.729500      1071.174000      -174.350800         0.436774        90.602920         0.094895       -91.474980         0.236860        97.503230        59.834760        -4.096527
1643124176.0000       863.229900       115.395800       968.418300       162.421100      1074.787000       177.912400         0.141387        32.418640         0.915756      -132.425600         0.169267       157.405400        59.943330         4.232941
1643124177.0000       862.172100       108.216600       956.959000       154.602100      1078.719000       169.565300         0.212442        73.771970         0.322460       -61.933240         0.719443       103.351400        59.929870        -6.389465
1643124178.0000       862.952600       100.064300       960.408200       146.906300      1061.462000       161.775100         0.158236        86.759460         0.479256       -99.101790         0.096430        -5.226820        59.978760         1.002731
1643124179.0000       868.894500        91.937350       967.875700       138.281700      1067.752000       153.382700         0.387878        22.083560         0.564685      -170.423900         0.286763       129.682200        60.003970         4.463882
