Terminal: LT 500  BURITIRAMA - QUEIMADA NOVA 2 CL2
Tensão base: 500 kV
SOC inicial: 1643124120
SOC final: 1643124179
Taxa: 1 fasores/s
Total de frames faltantes: - 

Tempo_(SOC)           VA_mod_(V)     VA_ang_(graus)     VB_mod_(V)     VB_ang_(graus)     VC_mod_(V)     VC_ang_(graus)     IA_mod_(A)     IA_ang_(graus)     IB_mod_(A)     IB_ang_(graus)     IC_mod_(A)     IC_ang_(graus)     Frequência        Delta_Freq     Faltante
1643124120.0000    305309.500000       -29.638680    305592.000000      -149.505300    303655.700000        90.577550       286.933000       127.220400       311.770400         7.373021       288.239200      -114.087000        59.975080         0.002518
1643124121.0000    305245.000000       -38.657860    305543.000000      -158.520500    303631.700000        81.558260       287.378600       118.286600       311.491300        -1.528202       288.520500      -122.980900        59.973280        -0.037079
1643124122.0000    305187.400000       -48.085650    305520.300000      -167.957600    303560.200000        72.120360       287.499500       108.962800       311.645000       -10.949430       288.689400      -132.377500        59.973480         0.029297
1643124123.0000    305205.100000       -58.079230    305523.500000      -177.953400    303562.800000        62.128240       287.592100        98.959400       311.789100       -20.937190       288.933000      -142.441600        59.972640         0.055618
1643124124.0000    305252.500000       -68.427890    305579.200000       171.704200    303619.300000        51.781140       287.647400        88.593700       311.969200       -31.344010       288.610700      -152.839500        59.971130        -0.019455
1643124125.0000    305207.400000       -79.051770    305531.700000       161.083500    303596.900000        41.159280       287.831800        77.939090       311.829300       -41.912850       288.629700      -163.352400        59.970560         0.049210
1643124126.0000    305190.000000       -90.199710    305508.600000       149.926600    303539.500000        30.010160       287.796100        66.826360       311.512000       -53.095660       288.705600      -174.537200        59.969040         0.015335
1643124127.0000    305168.800000      -101.770700    305482.800000       138.359200    303532.600000        18.438030       287.831200        55.397760       311.594900       -64.533180       288.979000       173.914900        59.966280        -0.015106
1643124128.0000    305329.000000      -113.225900    305651.200000       126.905800    303699.300000         6.982781       286.971100        43.660710       310.404500       -76.218880       287.512400       162.344700        59.970290         0.081940
1643124129.0000    305184.500000      -124.363000    305496.100000       115.764400    303537.900000        -4.153907       287.679100        32.718610       311.612200       -87.268780       288.462200       151.362300        59.969230         0.016937
1643124130.0000    305174.900000      -135.849300    305500.800000       104.282700    303541.200000       -15.640540       287.059400        21.189890       311.700500       -98.753080       288.586900       139.826000        59.966710        -0.027924
1643124131.0000    305087.500000      -147.345500    305430.700000        92.780300    303458.700000       -27.141710       287.097300         9.590668       311.358200      -110.229000       288.215000       128.248000        59.966340        -0.079651
1643124132.0000    305066.200000      -159.403800    305358.200000        80.730280    303443.400000       -39.187820       288.368200        -2.486938       312.691600      -122.284300       289.234700       116.172100        59.965160        -0.001144
1643124133.0000    305104.900000      -172.524000    305388.000000        67.601840    303442.800000       -52.312840       288.301000       -15.510590       311.876700      -135.383700       288.652400       103.156400        59.963810         0.071869
1643124134.0000    305152.500000       173.814600    305446.200000        53.943780    303514.900000       -65.969340       286.954100       -29.173270       311.001700      -149.089800       288.224800        89.402840        59.961270        -0.023346
1643124135.0000    305099.300000       159.675000    305370.000000        39.804200    303429.000000       -80.113330       287.699500       -43.262920       312.268200      -163.114700       288.791200        75.442340        59.959430        -0.011215
1643124136.0000    305177.900000       145.065500    305486.700000        25.191600    303540.100000       -94.725360       287.416300       -57.891010       311.089400      -177.729500       288.369800        60.754910        59.959660        -0.004578
1643124137.0000    305121.800000       131.191700    305477.400000        11.320070    303513.800000      -108.605300       287.696600       -71.611930       312.312000       168.468800       289.055200        46.988720        59.962250         0.051041
1643124138.0000    305066.900000       117.965100    305383.300000        -1.906261    303445.300000      -121.823600       289.261500       -84.985410       313.325400       155.244000       290.206000        33.765950        59.963920         0.027237
1643124139.0000    305130.500000       105.066600    305441.600000       -14.798220    303538.100000      -134.723100       288.243900       -97.928880       311.968800       142.246600       289.178200        20.792670        59.964630         0.017395
1643124140.0000    305043.600000        92.670620    305363.300000       -27.194200    303425.800000      -147.119100       289.446700      -110.256900       313.776200       129.859100       290.249800         8.453967        59.965680         0.008698
1643124141.0000    305088.400000        80.539370    305419.600000       -39.326650    303469.800000      -159.250400       288.697700      -122.402500       312.890500       117.723700       289.839000        -3.672107        59.966160         0.004120
1643124142.0000    305057.200000        68.912970    305395.000000       -50.948390    303473.400000      -170.874600       290.366600      -133.907900       314.363200       106.043600       290.836500       -15.449690        59.968290         0.007324
1643124143.0000    305140.600000        57.667940    305458.800000       -62.196710    303529.300000       177.882900       289.059700      -145.211600       313.396900        94.867760       289.835000       -26.578950        59.970370         0.032272
1643124144.0000    305123.300000        47.114280    305444.400000       -72.742960    303566.900000       167.330700       289.255900      -155.854700       312.835700        84.300510       290.264800       -37.119570        59.972300         0.036850
1643124145.0000    305035.700000        37.190360    305333.200000       -82.671270    303424.800000       157.408500       289.832700      -165.595400       314.029800        74.497310       290.846500       -46.913330        59.969780        -0.161591
1643124146.0000    305093.700000        27.518670    305391.100000       -92.347730    303473.500000       147.733800       290.074500      -175.246500       314.381900        64.812400       291.572800       -56.579760        59.972610        -0.021057
1643124147.0000    305076.900000        18.039510    305397.900000      -101.837000    303422.300000       138.246500       290.644400       175.311700       314.570400        55.450000       291.520800       -66.018470        59.975010         0.096130
1643124148.0000    305106.300000         8.511387    305459.700000      -111.367200    303448.300000       128.711300       290.395600       165.799900       314.140100        45.944170       291.560200       -75.523220        59.974860         0.067749
1643124149.0000    305170.000000        -0.589765    305491.600000      -120.466500    303500.100000       119.618000       289.495300       156.555600       313.630700        36.698010       290.354000       -84.710970        59.975710         0.010986
1643124150.0000    305219.200000        -9.162129    305523.100000      -129.038600    303547.200000       111.043100       288.871000       147.996100       313.131800        28.021820       290.320500       -93.356720        59.976360        -0.014877
1643124151.0000    305305.800000       -16.813800    305596.000000      -136.699600    303590.600000       103.388700       287.932800       140.254900       312.531500        20.350020       289.515100      -101.354800        59.979730         0.027466
1643124152.0000    305221.300000       -23.626810    305518.800000      -143.509700    303524.000000        96.579880       288.484900       133.409200       313.009600        13.527050       289.360000      -107.993900        59.982040         0.016022
1643124153.0000    305266.100000       -30.113040    305558.800000      -149.992100    303608.300000        90.096080       288.442300       126.857800       312.616500         7.006836       289.451800      -114.541600        59.982630         0.021744
1643124154.0000    305341.400000       -36.184270    305629.900000      -156.061700    303671.600000        84.025540       288.170000       120.917400       312.333900         1.025322       289.139100      -120.585400        59.985870         0.078964
1643124155.0000    305354.700000       -41.199640    305642.700000      -161.077500    303696.900000        79.008140       287.948100       115.778600       312.904100        -4.035038       289.425800      -125.588300        59.987870         0.078278
1643124156.0000    305295.700000       -45.491360    305623.400000      -165.367700    303638.700000        74.715000       288.243600       111.509800       312.603500        -8.382352       289.747500      -129.927500        59.989520         0.007324
1643124157.0000    305241.600000       -49.206710    305553.800000      -169.084000    303570.400000        71.003910       289.422200       107.856400       313.564400       -11.966710       290.483400      -133.522400        59.989320        -0.023346
1643124158.0000    305330.000000       -52.761940    305648.600000      -172.641700    303661.000000        67.443890       287.938800       104.135000       311.662000       -15.669420       289.183700      -137.236700        59.991490        -0.007324
1643124159.0000    305415.600000       -55.308530    305726.100000      -175.186000    303749.500000        64.899670       286.721900       101.480600       311.306500       -18.324770       288.036700      -139.825900        59.992620        -0.046921
1643124160.0000    305338.900000       -56.873040    305637.600000      -176.758400    303635.900000        63.335760       288.071400       100.093300       312.162900       -19.901620       288.774200      -141.422900        59.996570        -0.008011
1643124161.0000    305462.900000       -57.968230    305768.500000      -177.846700    303792.600000        62.240880       286.534300        98.794720       311.266400       -21.035530       287.885800      -142.531900        59.999360         0.092697
1643124162.0000    305404.900000       -58.358680    305661.000000      -178.238100    303698.100000        61.853840       288.459100        98.629970       312.780400       -21.245060       289.824500      -142.799600        59.998240        -0.066376
1643124163.0000    305376.800000       -58.356490    305647.600000      -178.236900    303685.200000        61.855110       288.078900        98.600010       312.528200       -21.285470       289.152700      -142.932700        60.000440        -0.071640
1643124164.0000    305364.100000       -58.372500    305656.700000      -178.255200    303674.500000        61.835250       287.966100        98.622830       312.566000       -21.241840       288.948900      -142.814900        60.000350         0.041656
1643124165.0000    305470.500000       -58.619560    305789.400000      -178.505400    303740.700000        61.583310       287.079400        98.194300       311.387500       -21.658570       287.960800      -143.083100        60.001210         0.197983
1643124166.0000    305311.500000       -58.747680    305630.700000      -178.619800    303664.700000        61.458720       288.819400        98.166170       312.553900       -21.664680       288.957900      -143.072300        60.003360         0.154495
1643124167.0000    305310.400000       -59.623840    305560.000000      -179.490000    303659.600000        60.595910       288.458700        97.403810       312.820100       -22.503160       289.414300      -144.000300        59.996910         0.034103
1643124168.0000    305406.300000       -61.286580    305673.000000       178.847300    303775.200000        58.931210       286.411500        95.644410       310.779100       -24.353840       287.003400      -145.753500        59.995250         0.032501
1643124169.0000    305402.800000       -63.066920    305649.400000       177.061600    303717.200000        57.151470       286.821100        93.825450       310.965100       -26.022430       288.219400      -147.494900        59.994730         0.025864
1643124170.0000    305370.800000       -65.691840    305650.800000       174.442300    303723.200000        54.528570       286.424500        91.188580       310.565500       -28.717950       287.753200      -150.190800        59.991040        -0.067062
1643124171.0000    305374.200000       -68.777980    305655.900000       171.356900    303739.800000        51.439390       287.621800        88.218440       311.537500       -31.663380       288.257300      -153.208300        59.992510         0.109177
1643124172.0000    305299.000000       -72.620670    305547.400000       167.514100    303659.000000        47.601370       288.308800        84.547940       312.604600       -35.382820       289.547400      -156.905900        59.987330        -0.012817
1643124173.0000    305359.600000       -77.464090    305610.900000       162.669800    303712.200000        42.753220       287.498900        79.556690       312.202300       -40.318890       288.453400      -161.833000        59.987670         0.115814
1643124174.0000    305220.700000       -83.079940    305513.600000       157.051400    303596.600000        37.133980       289.119000        74.102120       313.172900       -45.944990       289.757000      -167.360500        59.982520        -0.067749
1643124175.0000    305308.100000       -89.856450    305615.800000       150.276600    303689.200000        30.358580       288.221000        67.261540       312.532900       -52.590520       289.371700      -174.074700        59.981120         0.118332
1643124176.0000    305306.800000       -97.361180    305589.500000       142.772300    303680.200000        22.856650       288.246600        59.840960       312.953900       -60.103510       289.296200       178.496800        59.978950         0.008926
1643124177.0000    305358.200000      -105.369500    305665.500000       134.771700    303772.900000        14.846350       288.391600        51.746080       311.984800       -68.063230       289.429200       170.509000        59.978220         0.034790
1643124178.0000    305369.100000      -113.234100    305643.400000       126.898200    303729.800000         6.983614       288.156600        43.889670       312.347600       -76.034570       289.101700       162.513700        59.978530         0.046005
1643124179.0000    305171.200000      -121.782100    305513.200000       118.353800    303572.600000        -1.570275       289.358000        35.515350       313.409700       -84.429660       289.854400       154.070700        59.974690         0.017166
