Terminal: LT 500  BATEIAS - ITATIBA C1
Tensão base: 500 kV
SOC inicial: 1643124120
SOC final: 1643124179
Taxa: 1 fasores/s
Total de frames faltantes: - 

Tempo_(SOC)           VA_mod_(V)     VA_ang_(graus)     VB_mod_(V)     VB_ang_(graus)     VC_mod_(V)     VC_ang_(graus)     IA_mod_(A)     IA_ang_(graus)     IB_mod_(A)     IB_ang_(graus)     IC_mod_(A)     IC_ang_(graus)     Frequência        Delta_Freq     Faltante
1643124120.0000    311842.600000      -132.046800    311666.200000       107.331300    308415.000000       -12.458990      1248.622000        56.810870      1289.244000       -63.817150      1256.078000       175.138500        59.974320        -0.026550
1643124121.0000    312013.300000      -141.158000    311941.600000        98.315900    309090.700000       -21.535100      1248.304000        47.812680      1287.153000       -72.784360      1254.943000       166.252100        59.974940        -0.039597
1643124122.0000    311874.600000      -150.613100    311794.500000        88.863420    308966.600000       -30.984220      1248.281000        38.303010      1284.542000       -82.273190      1254.989000       156.800000        59.973680        -0.049896
1643124123.0000    311856.800000      -160.527700    311789.200000        78.957340    308976.900000       -40.899600      1245.801000        28.243090      1282.688000       -92.370250      1251.755000       146.708300        59.977390         0.148087
1643124124.0000    311966.900000      -170.703900    311690.300000        68.768230    308927.700000       -51.052010      1245.232000        18.064630      1282.239000      -102.564500      1250.961000       136.485500        59.971020         0.000229
1643124125.0000    311600.000000       178.556100    311496.300000        57.949040    308276.100000       -61.860610      1246.924000         7.252782      1286.385000      -113.348000      1254.607000       125.645000        59.971300         0.037994
1643124126.0000    311804.500000       167.327500    311796.100000        46.732520    308591.100000       -73.096240      1247.130000        -3.788013      1287.187000      -124.420700      1254.017000       114.575500        59.969970         0.056305
1643124127.0000    311738.600000       155.637100    311349.700000        35.160220    308909.700000       -84.669750      1252.273000       -15.485220      1287.047000      -136.121400      1256.013000       103.050500        59.971260         0.169144
1643124128.0000    311685.900000       144.541200    311605.500000        23.962950    308498.300000       -95.861540      1245.376000       -26.723820      1285.406000      -147.255300      1254.046000        91.649490        59.968050         0.047379
1643124129.0000    311820.900000       132.972600    311778.700000        12.372610    308553.400000      -107.449300      1250.895000       -38.124910      1290.438000      -158.730500      1257.978000        80.247630        59.968350         0.066605
1643124130.0000    312123.500000       121.736100    311910.100000         1.214231    309143.300000      -118.613200      1245.533000       -49.440260      1283.372000      -170.078400      1251.108000        68.990300        59.971560         0.080566
1643124131.0000    311568.700000       110.068800    311597.700000       -10.522880    308393.800000      -130.358600      1246.485000       -61.034100      1286.947000       178.350400      1253.999000        57.311850        59.969750         0.115585
1643124132.0000    311718.300000        97.769870    311593.700000       -22.858830    308278.200000      -142.654300      1247.478000       -73.278100      1287.632000       166.009200      1253.715000        45.002830        59.963660        -0.049667
1643124133.0000    311401.300000        84.815730    311673.100000       -35.741690    308489.900000      -155.637400      1248.553000       -86.392040      1287.934000       153.115700      1257.739000        32.065690        59.965270         0.055618
1643124134.0000    311665.100000        71.292740    311428.800000       -49.321900    308256.700000      -169.104100      1247.468000       -99.794750      1287.355000       139.465500      1252.251000        18.497710        59.957920        -0.096588
1643124135.0000    311954.600000        57.034980    311807.900000       -63.537840    308752.000000       176.642200      1247.476000      -114.096100      1285.440000       125.280500      1253.441000         4.316052        59.958320        -0.073929
1643124136.0000    311931.500000        42.544110    311732.100000       -77.981900    308935.000000       162.186600      1248.968000      -128.533900      1285.515000       110.822300      1253.705000       -10.072820        59.958760        -0.061569
1643124137.0000    311778.000000        28.434160    311433.000000       -92.125240    308550.500000       148.082300      1249.823000      -142.640900      1288.238000        96.692720      1255.260000       -24.231630        59.966510         0.205765
1643124138.0000    312163.200000        15.030840    311826.200000      -105.476200    309188.300000       134.702200      1249.438000      -155.957100      1286.721000        83.352360      1253.656000       -37.520740        59.960000        -0.270767
1643124139.0000    311632.900000         2.272061    311579.700000      -118.334200    308327.800000       121.850300      1248.827000      -168.847700      1288.998000        70.533870      1255.894000       -50.495320        59.964420         0.025406
1643124140.0000    311950.900000       -10.303820    311878.300000      -130.837600    308965.200000       109.313600      1248.127000       178.683600      1286.004000        58.076700      1254.501000       -62.903820        59.966840         0.089264
1643124141.0000    311556.500000       -22.411960    311215.400000      -142.974400    308329.400000        97.229580      1251.969000       166.523000      1289.107000        45.820920      1256.054000       -75.061150        59.966860         0.016479
1643124142.0000    311558.500000       -34.103570    311587.200000      -154.718800    308258.000000        85.454540      1248.530000       154.747300      1289.411000        34.188120      1257.520000       -86.907550        59.967190         0.017166
1643124143.0000    311859.700000       -45.274010    311838.900000      -165.812900    308882.800000        74.329180      1249.157000       143.643000      1287.787000        23.075980      1256.448000       -97.905490        59.968750         0.022430
1643124144.0000    311986.200000       -55.722770    311851.100000      -176.251200    308995.000000        63.904210      1247.929000       133.156700      1283.946000        12.585090      1253.741000      -108.314200        59.970650        -0.021515
1643124145.0000    311720.300000       -65.942340    311536.500000       173.556700    308855.400000        53.710400      1250.082000       123.018700      1286.750000         2.442185      1255.903000      -118.466700        59.973050         0.044403
1643124146.0000    311662.400000       -75.612950    311466.200000       163.868600    308712.700000        44.030690      1250.174000       113.317900      1286.615000        -7.196466      1256.462000      -128.131900        59.975440         0.115356
1643124147.0000    311875.100000       -85.140840    311693.200000       154.306300    308762.300000        34.478540      1251.015000       103.798400      1287.726000       -16.801120      1256.332000      -137.729000        59.972470        -0.071182
1643124148.0000    311598.500000       -94.521450    311384.000000       144.917300    308433.300000        25.102970      1248.543000        94.292110      1285.477000       -26.301940      1254.256000      -147.208200        59.972310        -0.142822
1643124149.0000    311683.400000      -103.565700    311451.300000       135.857300    308449.800000        16.054030      1249.091000        85.319730      1286.949000       -35.313470      1254.906000      -156.279600        59.977070         0.028381
1643124150.0000    311872.700000      -112.113900    311495.300000       127.296600    308508.300000         7.520530      1251.844000        76.798650      1290.213000       -43.839550      1257.020000      -164.813600        59.976600         0.119019
1643124151.0000    311793.200000      -119.640400    311641.400000       119.826800    308788.800000        -0.010101      1250.909000        69.261990      1288.136000       -51.363830      1257.056000      -172.275300        59.979580         0.011444
1643124152.0000    312011.800000      -126.557800    311837.200000       112.909700    309006.700000        -6.922728      1249.248000        62.359160      1286.122000       -58.294480      1254.731000      -179.188600        59.980830        -0.171890
1643124153.0000    311884.700000      -132.985800    311880.900000       106.449200    308827.100000       -13.399110      1247.850000        56.019180      1287.161000       -64.628000      1254.405000       174.368400        59.985130         0.034561
1643124154.0000    311547.700000      -138.839200    311395.100000       100.549100    308186.800000       -19.247190      1247.450000        49.915020      1287.346000       -70.696190      1253.784000       168.285600        59.987820         0.099564
1643124155.0000    311869.300000      -143.937400    311765.400000        95.500110    308746.300000       -24.332280      1248.902000        44.933940      1286.693000       -75.640140      1256.171000       163.360000        59.987130        -0.000229
1643124156.0000    311664.800000      -148.031300    311677.200000        91.442340    308782.700000       -28.426030      1243.372000        40.658160      1281.155000       -79.889040      1250.301000       159.127500        59.987360        -0.038910
1643124157.0000    311814.900000      -151.985900    311797.900000        87.472560    308850.800000       -32.382780      1245.678000        36.795620      1284.071000       -83.763370      1253.386000       155.241800        59.991540         0.084457
1643124158.0000    311764.400000      -155.445200    311643.900000        84.014730    308745.200000       -35.826850      1247.939000        33.380810      1286.084000       -87.216480      1254.499000       151.819100        59.991210        -0.007782
1643124159.0000    311196.200000      -157.894800    310932.400000        81.596260    308263.100000       -38.233180      1249.103000        30.806260      1285.997000       -89.863260      1253.604000       149.245600        59.992420        -0.067520
1643124160.0000    311673.800000      -159.628200    311621.500000        79.804470    308568.300000       -40.032890      1248.115000        29.155540      1287.150000       -91.429990      1255.202000       147.580000        59.994270        -0.135269
1643124161.0000    311582.000000      -160.557100    311464.700000        78.885380    308483.500000       -40.945430      1246.773000        28.229530      1285.286000       -92.350910      1253.704000       146.638100        59.995900        -0.111008
1643124162.0000    311271.900000      -161.117500    311280.200000        78.279860    308021.700000       -41.552120      1247.089000        27.628640      1288.207000       -92.965340      1255.262000       145.953600        59.996210        -0.226135
1643124163.0000    311365.700000      -161.275400    310987.900000        78.122130    307924.200000       -41.644150      1249.524000        27.629740      1289.254000       -93.072900      1254.500000       145.928500        59.994920        -0.099106
1643124164.0000    311140.800000      -161.212400    311295.400000        78.202090    308057.900000       -41.662090      1248.741000        27.464160      1286.425000       -93.071120      1256.137000       145.905100        59.998980        -0.072098
1643124165.0000    311122.400000      -161.231800    311272.500000        78.250480    308343.900000       -41.646340      1248.205000        27.432720      1285.003000       -93.094460      1255.032000       145.975500        60.000780         0.133438
1643124166.0000    311354.200000      -161.701800    311044.500000        77.784090    308374.700000       -42.037630      1250.478000        27.145860      1287.589000       -93.467310      1255.887000       145.601100        60.000910         0.126114
1643124167.0000    311141.900000      -162.660600    311331.300000        76.782880    308199.900000       -43.093020      1250.364000        26.126500      1288.713000       -94.402240      1258.287000       144.599300        59.999860         0.169601
1643124168.0000    310976.100000      -163.743800    311378.300000        75.690510    308104.200000       -44.219850      1246.949000        24.819940      1285.653000       -95.653810      1256.102000       143.293200        59.995570        -0.063400
1643124169.0000    311058.700000      -165.799300    310974.300000        73.696630    308221.600000       -46.167310      1250.770000        22.915850      1287.564000       -97.674000      1256.883000       141.426900        59.994440         0.081940
1643124170.0000    311551.100000      -168.241400    311261.300000        71.211430    308425.700000       -48.596830      1246.954000        20.572240      1284.169000      -100.101100      1251.747000       138.987600        59.995830         0.286560
1643124171.0000    311484.300000      -171.490400    311395.600000        67.937410    308327.300000       -51.889050      1248.420000        17.405800      1287.105000      -103.262800      1254.229000       135.787500        59.991840         0.113297
1643124172.0000    311493.000000      -175.469500    311177.300000        63.969470    308283.200000       -55.827500      1251.074000        13.421830      1288.939000      -107.272300      1255.448000       131.815300        59.991500         0.143280
1643124173.0000    311478.800000       179.799200    311292.300000        59.216610    308223.600000       -60.593500      1248.724000         8.697666      1288.571000      -111.968000      1254.632000       127.044700        59.986270        -0.025177
1643124174.0000    311509.100000       173.842700    311254.000000        53.241890    308136.800000       -66.547330      1251.351000         2.844786      1291.314000      -117.846100      1257.087000       121.155900        59.981170        -0.058823
1643124175.0000    311491.300000       167.235900    311327.200000        46.702750    308469.200000       -73.131390      1251.541000        -3.797678      1289.117000      -124.432400      1256.828000       114.645800        59.977380        -0.181046
1643124176.0000    311428.100000       159.737200    311169.100000        39.209430    308408.800000       -80.612720      1251.852000       -11.251390      1289.710000      -131.933100      1256.779000       107.149800        59.975850        -0.080109
1643124177.0000    311582.800000       152.017100    311326.300000        31.459380    308421.000000       -88.347100      1250.552000       -19.106070      1288.426000      -139.738100      1255.986000        99.324910        59.978830         0.046234
1643124178.0000    311302.600000       143.994100    311233.000000        23.394180    308017.500000       -96.421430      1250.286000       -27.095540      1290.779000      -147.692900      1259.117000        91.255740        59.978970         0.105057
1643124179.0000    311425.600000       135.194200    311344.800000        14.627050    308306.300000      -105.206100      1252.286000       -35.819220      1291.554000      -156.464200      1258.431000        82.580320        59.974460        -0.042343
