Terminal: LT 500  PARANAITA - CLAUDIA C3
Tensão base: 500 kV
SOC inicial: 1643124120
SOC final: 1643124179
Taxa: 1 fasores/s
Total de frames faltantes: - 

Tempo_(SOC)           VA_mod_(V)     VA_ang_(graus)     VB_mod_(V)     VB_ang_(graus)     VC_mod_(V)     VC_ang_(graus)     IA_mod_(A)     IA_ang_(graus)     IB_mod_(A)     IB_ang_(graus)     IC_mod_(A)     IC_ang_(graus)     Frequência        Delta_Freq     Faltante
1643124120.0000    294207.800000       -10.449850    295771.600000      -129.901100    298062.600000       109.610100       921.569800        -8.113310       945.546900      -129.071400       926.552700       110.620800        59.975730        -0.003662
1643124121.0000    294387.400000       -19.593510    295949.300000      -139.045700    298212.000000       100.463600       920.748700       -17.293310       944.556600      -138.214300       925.807400       101.471100        59.976300         0.002060
1643124122.0000    294170.100000       -28.949070    295733.300000      -148.395700    298023.100000        91.111360       922.379900       -26.588510       945.972100      -147.510000       926.888200        92.191250        59.972910        -0.005722
1643124123.0000    294192.100000       -39.009750    295738.100000      -158.462200    298018.700000        81.048400       921.715000       -36.618890       946.365700      -157.535300       927.418600        82.125760        59.973040         0.029297
1643124124.0000    294050.900000       -49.208380    295602.000000      -168.659400    297898.400000        70.849430       922.455500       -46.775020       946.386300      -167.738300       927.796300        71.967830        59.971000         0.024490
1643124125.0000    293934.400000       -59.869370    295496.100000      -179.318100    297775.100000        60.189660       922.573900       -57.423340       946.127200      -178.394600       927.284700        61.346250        59.968130        -0.026093
1643124126.0000    293929.100000       -71.001730    295491.000000       169.547800    297772.500000        49.055740       923.158600       -68.575220       947.127400       170.474400       927.861400        50.153280        59.970760         0.026550
1643124127.0000    293976.500000       -82.789050    295527.600000       157.763200    297818.000000        37.273470       920.744400       -80.284680       944.947600       158.798000       925.285200        38.483880        59.969360         0.035248
1643124128.0000    294256.300000       -94.044940    295815.600000       146.506500    298098.100000        26.013490       920.256000       -91.646850       944.709100       147.429200       925.863300        27.150220        59.969350         0.021286
1643124129.0000    294035.600000      -105.421200    295592.600000       135.128500    297867.200000        14.636650       920.783200      -102.930900       945.149900       136.117700       925.698600        15.821510        59.966750         0.021286
1643124130.0000    294005.900000      -116.734500    295580.200000       123.812100    297839.800000         3.321007       922.382400      -114.354100       946.528700       124.720400       927.481400         4.399884        59.967550        -0.020828
1643124131.0000    294006.100000      -128.231000    295559.500000       112.316700    297842.700000        -8.176020       921.308000      -125.824500       945.631800       113.239400       926.076500        -7.069199        59.968350         0.022888
1643124132.0000    294258.500000      -140.605600    295821.600000        99.940110    298108.000000       -20.551090       919.763500      -138.230500       943.423700       100.845400       924.358900       -19.459470        59.965880         0.010986
1643124133.0000    294185.300000      -153.564200    295742.300000        86.983710    298023.800000       -33.505730       920.650900      -151.127700       944.880100        87.932620       925.287300       -32.378190        59.963500         0.012817
1643124134.0000    294228.600000      -167.100500    295764.900000        73.445370    298061.200000       -47.043770       920.929700      -164.782000       945.090300        74.286940       925.658500       -46.014020        59.963180         0.013962
1643124135.0000    294340.600000       178.556100    295883.300000        59.103420    298171.100000       -61.385370       920.579000      -179.091300       944.601900        59.984700       925.392300       -60.330980        59.959300        -0.035019
1643124136.0000    294364.400000       164.081200    295904.000000        44.628630    298190.700000       -75.859540       920.214400       166.381600       944.214400        45.451460       925.251600       -74.848930        59.960970         0.009842
1643124137.0000    294320.900000       150.066600    295866.300000        30.617130    298153.300000       -89.874210       920.386900       152.437900       944.362000        31.487100       925.542300       -88.834100        59.961950         0.035706
1643124138.0000    294220.900000       136.734200    295785.700000        17.282750    298060.000000      -103.210100       920.812400       139.105100       945.168300        18.168320       925.963300      -102.138500        59.962330         0.048065
1643124139.0000    294292.600000       123.922800    295841.600000         4.472716    298141.900000      -116.018100       920.086000       126.284300       944.342000         5.367095       925.603700      -114.942300        59.963890        -0.018082
1643124140.0000    294230.200000       111.354200    295771.400000        -8.095280    298069.600000      -128.588800       920.395700       113.764800       944.299600        -7.157816       925.479600      -127.456100        59.964650        -0.028152
1643124141.0000    294110.800000        99.374150    295651.000000       -20.075080    297945.800000      -140.565000       920.875200       101.809600       944.387200       -19.145990       926.154600      -139.437000        59.966360        -0.030212
1643124142.0000    294089.800000        87.591230    295646.500000       -31.860080    297928.700000      -152.350100       920.600900        90.038700       944.385400       -30.876850       925.888700      -151.194600        59.967930         0.006866
1643124143.0000    294127.700000        76.408430    295682.100000       -43.044820    297963.200000      -163.533100       921.126800        78.812520       945.008500       -42.122120       925.648400      -162.410500        59.971160         0.037537
1643124144.0000    294273.200000        65.796300    295829.600000       -53.653680    298115.500000      -174.144300       918.768200        68.241800       942.313400       -52.694420       923.396100      -172.979700        59.971450        -0.045090
1643124145.0000    294140.700000        55.859860    295693.200000       -63.588110    297977.700000       175.918400       920.862700        58.271400       944.383500       -62.648190       925.642500       177.047700        59.972030        -0.017166
1643124146.0000    294179.300000        46.233720    295731.500000       -73.209010    298026.500000       166.296600       921.556400        48.625930       946.053500       -72.326350       926.563800       167.391300        59.973320        -0.007782
1643124147.0000    294024.500000        36.680020    295587.100000       -82.769230    297867.900000       156.739200       921.286100        39.145970       945.586500       -81.804320       926.042700       157.886300        59.971650         0.000458
1643124148.0000    294295.500000        27.148490    295840.900000       -92.300980    298135.100000       147.210800       920.366300        29.523390       944.034300       -91.392730       925.225300       148.289800        59.974560         0.033875
1643124149.0000    294389.800000        18.088380    295935.800000      -101.363700    298234.000000       138.146000       920.486100        20.460510       944.594500      -100.481100       925.202000       139.193200        59.975520        -0.046005
1643124150.0000    294272.300000         9.577111    295814.100000      -109.874800    298113.700000       129.634800       920.131000        11.979580       943.852500      -108.941200       925.183500       130.792200        59.977750         0.015564
1643124151.0000    294348.200000         2.090831    295886.700000      -117.363600    298190.000000       122.148600       920.314800         4.454490       944.127300      -116.488700       925.148300       123.234900        59.979030         0.006638
1643124152.0000    294349.700000        -4.836028    295897.900000      -124.289100    298165.600000       115.221000       920.160000        -2.485534       944.206500      -123.416500       924.889400       116.285800        59.981590        -0.030441
1643124153.0000    294121.100000       -11.219880    295687.800000      -130.674700    297946.600000       108.837500       919.703100        -8.763146       943.752100      -129.739300       925.127900       109.967700        59.982640         0.017166
1643124154.0000    294362.800000       -17.213670    295904.700000      -136.666000    298198.800000       102.845900       920.591200       -14.836180       944.811500      -135.769200       925.953100       103.912300        59.986630        -0.012589
1643124155.0000    294234.600000       -22.239780    295789.900000      -141.689800    298072.600000        97.818860       920.242800       -19.787900       944.857000      -140.744800       925.424900        98.942410        59.988400         0.042801
1643124156.0000    294239.800000       -26.563960    295779.600000      -146.016800    298071.500000        93.493880       919.372400       -24.150480       943.809000      -145.075500       924.398600        94.599770        59.989420        -0.000458
1643124157.0000    294048.600000       -30.293090    295613.500000      -149.745300    297898.300000        89.764760       920.653800       -27.818040       944.587200      -148.779500       925.824700        90.917630        59.987330        -0.042572
1643124158.0000    294332.200000       -33.905830    295870.500000      -153.356700    298180.100000        86.155200       918.738000       -31.458880       942.651600      -152.386400       923.431600        87.295390        59.992140         0.020828
1643124159.0000    294279.000000       -36.266960    295829.000000      -155.718800    298108.800000        83.791620       919.680500       -33.855410       943.703200      -154.801700       924.990800        84.909760        59.993560        -0.005722
1643124160.0000    294265.200000       -38.025220    295821.400000      -157.479000    298102.700000        82.035570       919.177500       -35.601700       943.324800      -156.511500       923.894600        83.182210        59.995060        -0.023117
1643124161.0000    294186.600000       -38.964870    295739.800000      -158.416400    298028.800000        81.094810       919.343800       -36.524700       943.568900      -157.486200       924.715300        82.221440        59.996040        -0.038681
1643124162.0000    294136.400000       -39.474950    295689.500000      -158.929600    297962.600000        80.583760       918.995300       -36.995830       943.720200      -157.930900       924.337300        81.770850        59.997630         0.007324
1643124163.0000    294125.900000       -39.453270    295669.200000      -158.905800    297951.600000        80.605560       919.930400       -37.017380       943.963900      -157.975800       924.957500        81.723330        60.002050         0.026550
1643124164.0000    294146.800000       -39.542820    295689.500000      -158.995300    297953.000000        80.517680       920.413100       -37.019670       944.050600      -158.000900       925.356300        81.686730        60.000770        -0.002289
1643124165.0000    294067.500000       -39.542850    295618.100000      -158.997900    297882.400000        80.514500       921.362100       -37.063870       946.088400      -158.022700       926.592700        81.668460        60.000330         0.013046
1643124166.0000    294148.300000       -39.866020    295708.300000      -159.316800    297973.500000        80.191440       920.109700       -37.443310       944.439000      -158.390200       925.020000        81.305780        59.997610        -0.070953
1643124167.0000    293979.600000       -40.809170    295516.000000      -160.258500    297819.900000        79.254060       921.438000       -38.324730       944.701000      -159.278600       925.698700        80.434090        59.994610        -0.041428
1643124168.0000    294078.100000       -42.232530    295611.100000      -161.683900    297927.000000        77.827970       918.416800       -39.735160       942.680500      -160.689400       923.887900        79.005910        59.995830        -0.003662
1643124169.0000    294041.700000       -44.155620    295569.700000      -163.605900    297860.200000        75.907020       917.803000       -41.633170       941.640300      -162.586500       922.794900        77.168950        59.993430         0.005035
1643124170.0000    294163.500000       -46.714180    295699.400000      -166.163300    297992.400000        73.347920       918.480400       -44.209640       942.399800      -165.153200       923.226000        74.524120        59.992690        -0.018311
1643124171.0000    294081.400000       -49.804180    295618.200000      -169.256700    297911.800000        70.256070       919.556800       -47.314370       943.918800      -168.272000       924.881100        71.432750        59.987520        -0.057220
1643124172.0000    294205.600000       -53.769290    295726.600000      -173.221200    298028.300000        66.292270       918.845100       -51.297630       942.640100      -172.265500       923.460500        67.478110        59.988370         0.054245
1643124173.0000    294134.200000       -54.361870    295684.900000      -173.816000    297958.900000        65.696270       918.320200       -51.858650       942.516500      -172.815800       923.251400        66.898450        59.987680        -0.018539          *
1643124174.0000    294134.200000       -54.361870    295684.900000      -173.816000    297958.900000        65.696270       918.320200       -51.858650       942.516500      -172.815800       923.251400        66.898450        59.987680        -0.018539          *
1643124175.0000    294134.200000       -54.361870    295684.900000      -173.816000    297958.900000        65.696270       918.320200       -51.858650       942.516500      -172.815800       923.251400        66.898450        59.987680        -0.018539          *
1643124176.0000    294134.200000       -54.361870    295684.900000      -173.816000    297958.900000        65.696270       918.320200       -51.858650       942.516500      -172.815800       923.251400        66.898450        59.987680        -0.018539          *
1643124177.0000    294134.200000       -54.361870    295684.900000      -173.816000    297958.900000        65.696270       918.320200       -51.858650       942.516500      -172.815800       923.251400        66.898450        59.987680        -0.018539          *
1643124178.0000    294134.200000       -54.361870    295684.900000      -173.816000    297958.900000        65.696270       918.320200       -51.858650       942.516500      -172.815800       923.251400        66.898450        59.987680        -0.018539          *
1643124179.0000    294134.200000       -54.361870    295684.900000      -173.816000    297958.900000        65.696270       918.320200       -51.858650       942.516500      -172.815800       923.251400        66.898450        59.987680        -0.018539          *
