Terminal: LT 765  TIJUCO PRETO - ITABERA C1
Tensão base: 765 kV
SOC inicial: 1643124120
SOC final: 1643124179
Taxa: 1 fasores/s
Total de frames faltantes: - 

Tempo_(SOC)           VA_mod_(V)     VA_ang_(graus)     VB_mod_(V)     VB_ang_(graus)     VC_mod_(V)     VC_ang_(graus)     IA_mod_(A)     IA_ang_(graus)     IB_mod_(A)     IB_ang_(graus)     IC_mod_(A)     IC_ang_(graus)     Frequência        Delta_Freq     Faltante
1643124120.0000    422929.700000        11.952330    425545.400000       132.112400    425560.500000      -107.896600       472.546800       143.548200       482.235600       -95.952330       459.480400        24.236710        59.974660         0.169391
1643124121.0000    422858.900000         2.839561    425410.000000       123.053300    425124.800000      -116.991700       473.296800       134.486400       482.214000      -105.196000       461.155300        15.005620        59.972670        -0.142853
1643124122.0000    422665.500000        -6.575565    425110.800000       113.558900    425383.000000      -126.458900       473.511500       125.105500       484.123800      -114.387100       460.430900         5.945683        59.972320        -0.283693
1643124123.0000    423088.500000       -16.590270    425701.800000       103.609700    425466.400000      -136.419900       473.205200       115.351700       482.382500      -124.228400       460.131600        -4.047794        59.972300        -0.137320
1643124124.0000    423134.800000       -26.773580    425705.200000        93.404590    425630.600000      -146.618900       472.859300       105.171800       482.506400      -134.419200       459.846500       -14.170510        59.972300         0.101967
1643124125.0000    423012.800000       -37.467700    425707.400000        82.697880    425647.900000      -157.303400       472.395100        94.438290       481.584400      -145.098000       458.958600       -24.902900        59.971110        -0.131740
1643124126.0000    422725.300000       -48.718290    425478.600000        71.486390    425139.600000      -168.528800       473.854600        83.107960       482.198900      -156.510900       460.560900       -36.354730        59.968110         0.157786
1643124127.0000    423007.000000       -60.244110    425646.000000        59.910930    425691.500000       179.906700       471.606300        71.325290       480.883500      -168.130000       457.340000       -47.998920        59.967480         0.075367
1643124128.0000    423057.200000       -71.467370    425442.100000        48.704090    425500.100000       168.661000       473.017600        60.317760       483.386500      -179.353400       461.254700       -59.001880        59.968140        -0.318837
1643124129.0000    422962.800000       -82.985390    425676.800000        37.200190    425479.800000       157.188900       471.717700        48.616640       480.735400       169.031400       458.372100       -70.796810        59.968290         0.067758
1643124130.0000    423232.400000       -94.326910    425827.300000        25.870620    425612.500000       145.840600       472.962400        37.461940       482.011900       157.822200       459.970000       -81.953720        59.971650         0.112704
1643124131.0000    422533.200000      -105.961700    425217.000000        14.235280    424971.400000       134.215300       474.247900        25.873450       483.189500       146.269600       461.309800       -93.580150        59.964300        -0.227974
1643124132.0000    422471.500000      -118.263500    425257.400000         1.917820    425056.600000       121.918200       474.351200        13.553150       483.017000       134.010100       460.549700      -105.867700        59.965210        -0.054940
1643124133.0000    422753.600000      -131.154000    425444.000000       -10.973680    425300.100000       109.018400       472.063900         0.457892       481.569100       120.958000       458.651400      -118.836100        59.963630         0.021375
1643124134.0000    422454.100000      -144.744200    425323.300000       -24.544730    424962.000000        95.456470       474.287200       -12.894750       481.678600       107.450800       460.764900      -132.491100        59.960210        -0.006972
1643124135.0000    422843.500000      -158.984800    425572.000000       -38.818150    425491.300000        81.180730       472.507400       -27.277260       481.523300        93.248960       458.696300      -146.624700        59.961170         0.170349
1643124136.0000    422808.900000      -173.427600    425582.500000       -53.256970    425443.600000        66.746890       472.298900       -41.901380       481.055400        78.596540       458.325500      -161.259300        59.958950        -0.249650
1643124137.0000    422850.300000       172.489000    425419.700000       -67.318700    425256.600000        52.650640       473.087500       -55.971540       481.844500        64.374280       460.392600      -175.421900        59.961240         0.043633
1643124138.0000    423148.000000       159.063000    425737.200000       -80.753620    425626.900000        39.222070       472.170100       -69.439350       481.197500        50.997660       459.352900       171.200000        59.964280        -0.213254
1643124139.0000    422758.500000       146.298100    425471.500000       -93.515300    425262.300000        26.474330       474.023300       -82.049560       482.853300        38.322680       461.084400       158.495200        59.968190         0.087650
1643124140.0000    422883.600000       133.709700    425497.200000      -106.095600    425289.900000        13.876820       473.047300       -94.683440       482.225200        25.680790       460.341700       145.902000        59.966540         0.058735
1643124141.0000    422623.400000       121.692600    425434.400000      -118.137600    425286.500000         1.871161       474.158000      -106.825100       482.723800        13.692190       460.217500       133.767200        59.966520        -0.080697
1643124142.0000    422896.900000       109.934900    425524.000000      -129.880200    425364.100000        -9.901494       472.280200      -118.465000       481.539100         1.916598       459.600300       122.100400        59.968120         0.137440
1643124143.0000    423151.900000        98.779460    425687.300000      -141.036700    425589.100000       -21.067860       472.330800      -129.707400       481.607500        -9.301407       459.063800       110.959500        59.969620         0.074250
1643124144.0000    422941.500000        88.275310    425583.800000      -151.561700    425581.200000       -31.569540       473.120400      -140.155300       482.629700       -19.665310       459.558300       100.501200        59.971400         0.142032
1643124145.0000    422746.400000        78.144130    425320.200000      -161.685400    425293.600000       -41.705080       473.059800      -150.393100       482.413100       -29.971780       460.046400        90.216070        59.973690         0.287956
1643124146.0000    422582.100000        68.490370    425045.800000      -171.361500    425221.100000       -51.383060       474.538200      -160.049900       484.682300       -39.559750       461.300800        80.715200        59.974810         0.060104
1643124147.0000    422943.200000        58.930280    425556.200000       179.094100    425551.800000       -60.917310       472.542200      -169.435000       481.852300       -48.976720       459.197900        71.225090        59.973050        -0.087243
1643124148.0000    422623.700000        49.515720    425300.500000       169.651100    425436.700000       -70.338020       473.938900      -178.891200       484.403000       -58.367340       460.490000        61.922130        59.973930        -0.275631
1643124149.0000    422708.400000        40.466170    425394.600000       160.628700    425352.700000       -79.372100       474.369100       172.132700       483.633700       -67.363630       460.837500        52.747410        59.975510         0.155663
1643124150.0000    423051.900000        31.990290    425613.200000       152.148800    425671.700000       -87.866690       472.375100       163.412100       481.784800       -76.126790       459.036400        44.092920        59.978030         0.037692
1643124151.0000    423178.800000        24.442600    425683.600000       144.626200    425598.700000       -95.407550       472.522400       155.997500       482.178700       -83.617120       459.974900        36.653600        59.981800         0.049043
1643124152.0000    423192.800000        17.466210    425818.200000       137.641800    425728.400000      -102.372800       472.937600       149.035800       482.163900       -90.482440       459.465900        29.692430        59.981990        -0.013636
1643124153.0000    422816.300000        10.993930    425450.600000       131.205800    425124.200000      -108.827400       474.958500       142.709900       483.996800       -97.014180       462.604800        23.237980        59.981610        -0.057605
1643124154.0000    422793.900000         5.159931    425550.500000       125.328700    425435.600000      -114.668600       475.226400       136.897700       483.821000      -102.651000       460.868100        17.492690        59.981980        -0.239160
1643124155.0000    423012.500000         0.119181    425529.700000       120.282900    425578.800000      -119.740500       473.408800       131.625200       483.240300      -107.926400       460.843900        12.282620        59.987570        -0.055869
1643124156.0000    423124.600000        -4.099597    425696.800000       116.083900    425583.900000      -123.944300       475.515800       127.829500       484.677400      -111.751500       462.258500         8.428208        59.989060         0.172562
1643124157.0000    423196.600000        -8.009038    425721.100000       112.165700    425698.000000      -127.862700       473.957400       123.814000       483.655400      -115.772100       461.094200         4.503846        59.991520         0.192571
1643124158.0000    423105.100000       -11.404770    425646.200000       108.767600    425625.900000      -131.256800       473.523400       120.218800       483.493000      -119.358800       460.984100         0.902816        59.991650        -0.092900
1643124159.0000    423100.100000       -13.830000    425710.300000       106.367000    425498.700000      -133.662500       474.495100       118.010700       483.518400      -121.595900       461.701000        -1.397709        59.994300         0.053857
1643124160.0000    423151.400000       -15.587200    425759.800000       104.587500    425691.200000      -135.430100       474.069800       116.134200       483.281800      -123.428600       460.801100        -3.222350        59.996760        -0.059391
1643124161.0000    422942.200000       -16.536550    425475.500000       103.642000    425413.500000      -136.387900       475.458400       115.328200       485.497400      -124.261700       463.070400        -3.994516        59.998110        -0.023225
1643124162.0000    422914.200000       -17.093000    425551.700000       103.098700    425362.900000      -136.924300       474.689700       114.711200       483.875200      -124.907200       461.789500        -4.672997        59.997840        -0.168097
1643124163.0000    422437.000000       -17.204360    425114.800000       102.963600    425053.000000      -137.042000       476.708000       114.635300       486.129500      -124.965800       463.550500        -4.766453        60.000210         0.017167
1643124164.0000    422770.100000       -17.196030    425457.100000       102.974100    425386.400000      -137.030800       475.421300       114.655100       484.862900      -124.889300       462.390800        -4.675423        59.999860         0.039169
1643124165.0000    422739.900000       -17.209060    425413.500000       102.969400    425295.300000      -137.041200       475.888100       114.709000       485.677500      -124.875100       463.048400        -4.611171        59.998990         0.120020
1643124166.0000    422693.000000       -17.584070    425183.500000       102.596200    425141.000000      -137.437300       474.898100       114.284200       484.568000      -125.341300       462.274000        -5.055091        59.997590         0.003515
1643124167.0000    422549.400000       -18.586180    425347.800000       101.603800    425082.500000      -138.398900       474.941300       113.217800       483.930600      -126.396800       461.869900        -6.217883        59.997280        -0.080884
1643124168.0000    422881.800000       -19.742040    425655.200000       100.438800    425471.400000      -139.562700       474.392500       112.220200       483.461700      -127.306200       460.651100        -7.101518        59.996650         0.022758
1643124169.0000    422859.100000       -21.684260    425521.700000        98.509450    425299.200000      -141.510400       474.166300       110.233700       482.846200      -129.337800       460.579300        -9.156593        59.995830         0.197658
1643124170.0000    422656.100000       -24.219060    425270.700000        95.963810    425140.000000      -144.056600       475.626400       107.761200       484.595200      -131.804600       462.170400       -11.635070        59.991280         0.075826
1643124171.0000    422462.500000       -27.462220    425236.900000        92.737230    424921.400000      -147.273200       476.185400       104.420300       484.696400      -135.164500       462.548600       -15.015770        59.989810         0.005052
1643124172.0000    422631.300000       -31.368780    425344.600000        88.811160    425186.500000      -151.195900       474.828100       100.599300       483.914600      -138.966900       461.547300       -18.804610        59.987920        -0.119582
1643124173.0000    422612.700000       -36.172020    425249.900000        84.038640    424933.600000      -155.992500       476.162300        95.924000       484.838700      -143.778400       463.515800       -23.561680        59.984310         0.010663
1643124174.0000    422412.100000       -42.063030    425049.700000        78.114320    424949.400000      -161.900100       475.211600        89.864140       484.397400      -149.732500       462.362500       -29.505840        59.981430         0.076889
1643124175.0000    422494.400000       -48.663510    425171.900000        71.523400    424980.900000      -168.491800       475.227500        83.187890       484.767900      -156.410700       462.128000       -36.175960        59.979260        -0.045889
1643124176.0000    422562.200000       -56.140680    425059.000000        64.062780    424853.600000      -175.981100       474.801800        75.726870       484.097700      -163.930600       462.282200       -43.669560        59.976050        -0.444705
1643124177.0000    422692.900000       -63.888880    425420.600000        56.273010    425376.600000       176.276900       474.505700        67.919710       483.868000      -171.546900       460.889600       -51.406430        59.978020        -0.143957
1643124178.0000    422569.300000       -71.890000    425080.000000        48.286510    425046.300000       168.256600       475.219300        59.944380       485.093200      -179.689900       462.715800       -59.398100        59.979640         0.292921
1643124179.0000    422594.700000       -80.685540    425262.300000        39.516900    424975.500000       159.492800       474.532300        51.158600       483.277400       171.503900       461.698600       -68.286160        59.976100         0.106747
