Terminal: LT 765  ITABERA - IVAIPORA FUR C2
Tensão base: 765 kV
SOC inicial: 1643124120
SOC final: 1643124179
Taxa: 1 fasores/s
Total de frames faltantes: - 

Tempo_(SOC)           VA_mod_(V)     VA_ang_(graus)     VB_mod_(V)     VB_ang_(graus)     VC_mod_(V)     VC_ang_(graus)     IA_mod_(A)     IA_ang_(graus)     IB_mod_(A)     IB_ang_(graus)     IC_mod_(A)     IC_ang_(graus)     Frequência        Delta_Freq     Faltante
1643124120.0000    455194.300000        13.650080    456654.600000       133.543300    455265.600000      -106.257500       285.179200      -165.009700       304.865400       -42.510460       297.636300        78.479070        59.974060         0.104694
1643124121.0000    455143.200000         4.543953    456555.800000       124.478100    454910.500000      -115.348900       285.971300      -174.273600       303.582600       -51.746070       297.510500        68.915310        59.974030        -0.061286
1643124122.0000    454939.700000        -4.871878    456261.000000       115.004800    455058.000000      -124.803300       285.964900       176.340300       306.636400       -61.233110       299.692000        59.987160        59.973140        -0.176989
1643124123.0000    455298.800000       -14.874280    456756.900000       105.052000    455150.800000      -134.765100       287.777500       166.688300       306.304800       -70.788230       299.366600        50.081100        59.971960        -0.203628
1643124124.0000    455343.500000       -25.061290    456756.800000        94.848720    455281.000000      -144.965800       287.229300       156.529000       306.615000       -80.908440       299.878500        39.911820        59.971540         0.036648
1643124125.0000    455186.000000       -35.763050    456723.000000        84.133580    455277.100000      -155.659700       286.589100       145.795300       306.351900       -91.571620       299.040700        29.364860        59.970710        -0.004173
1643124126.0000    455004.900000       -47.006460    456578.100000        72.921670    454894.500000      -166.883100       286.968000       134.246100       305.320700      -103.101800       298.203300        17.568050        59.968740         0.159765
1643124127.0000    455233.000000       -58.553560    456689.700000        61.338420    455309.900000      -178.462400       283.972300       122.863700       304.416300      -114.459700       296.625000         6.524069        59.967140        -0.038195
1643124128.0000    455305.000000       -69.763290    456569.100000        50.139880    455201.800000       170.311800       286.481600       111.634400       305.718800      -126.067600       299.782800        -5.030878        59.967990        -0.303425
1643124129.0000    455177.300000       -81.289870    456722.500000        38.623320    455159.800000       158.821500       284.625900       100.161400       303.717700      -137.246800       296.323300       -16.460870        59.969050         0.099671
1643124130.0000    455484.600000       -92.625510    456926.400000        27.299140    455334.800000       147.480300       286.081000        88.868130       304.996300      -148.599800       298.074100       -27.779280        59.971500         0.173537
1643124131.0000    454804.000000      -104.245700    456335.000000        15.676290    454727.300000       135.869100       287.182800        76.903280       305.807400      -160.434700       298.870200       -39.741620        59.965000        -0.218922
1643124132.0000    454741.500000      -116.548800    456353.400000         3.360060    454790.000000       123.568900       287.180500        64.671460       306.163800      -172.729100       298.547400       -51.928700        59.964440        -0.160200
1643124133.0000    454972.900000      -129.458000    456524.800000        -9.548264    454985.000000       110.653400       284.772300        51.837730       304.224000       174.479600       296.943100       -64.610350        59.963230        -0.008658
1643124134.0000    454699.100000      -143.030200    456383.500000       -23.109030    454703.600000        97.101160       287.436000        38.108860       305.301000       160.902200       297.825000       -78.547200        59.961350         0.052930
1643124135.0000    455075.400000      -157.283800    456628.700000       -37.384600    455158.800000        82.820540       285.502500        24.092700       305.227000       146.749300       297.477500       -92.407990        59.960780         0.121440
1643124136.0000    455064.500000      -171.737200    456654.400000       -51.834260    455136.400000        68.373390       284.042600         9.524942       303.871000       132.206200       296.146100      -106.924600        59.959100        -0.182736
1643124137.0000    455142.800000       174.184700    456568.100000       -65.897960    455031.800000        54.284930       284.931200        -4.683802       303.360400       117.852600       296.642600      -121.348700        59.961820         0.076107
1643124138.0000    455416.700000       160.754800    456857.100000       -79.332450    455342.300000        40.854850       284.191400       -17.951800       303.307900       104.611800       296.337900      -134.572700        59.965100        -0.074947
1643124139.0000    455075.300000       148.000900    456631.900000       -92.085630    455061.300000        28.112830       285.925400       -30.988660       304.597000        91.625500       297.672600      -147.595400        59.967040         0.092410
1643124140.0000    455184.800000       135.411400    456648.400000      -104.668900    455064.800000        15.517280       285.292900       -43.381770       303.972100        79.108980       297.367100      -160.065000        59.967330         0.061850
1643124141.0000    454968.000000       123.390900    456581.100000      -116.710200    455077.600000         3.503052       285.405100       -55.729920       304.268400        67.104640       296.622700      -172.116800        59.966290        -0.090241
1643124142.0000    455146.500000       111.630400    456618.000000      -128.456200    455093.100000        -8.265478       284.869000       -67.052930       303.632700        55.499390       296.724900       176.265300        59.968170         0.150572
1643124143.0000    455418.300000       100.473900    456824.900000      -139.611900    455321.600000       -19.429570       284.395500       -78.233850       303.763600        44.326640       296.764600       165.215600        59.970400         0.082874
1643124144.0000    455248.100000        89.977350    456722.400000      -150.127400    455319.200000       -29.928080       285.124100       -88.875340       304.888400        33.741920       297.494000       154.676700        59.971910         0.128121
1643124145.0000    455080.700000        79.840230    456491.800000      -160.258100    455068.200000       -40.067170       284.473200       -99.128600       303.967000        23.507230       296.507900       144.341600        59.972890         0.165042
1643124146.0000    454960.000000        70.193540    456281.700000      -169.921700    455017.000000       -49.733770       285.202500      -108.961600       305.283900        13.539870       298.336600       134.607600        59.975300         0.110740
1643124147.0000    455199.300000        60.628310    456655.500000      -179.473800    455246.500000       -59.277320       284.812800      -118.037200       304.720900         4.512332       297.476000       125.460400        59.973000        -0.088393
1643124148.0000    454952.500000        51.224760    456468.900000       171.099100    455177.400000       -68.686740       285.820500      -127.808600       306.832500        -5.185822       298.821000       115.888300        59.974230        -0.236835
1643124149.0000    455022.300000        42.175800    456554.000000       162.071700    455115.600000       -77.722140       286.446400      -136.794900       306.102900       -14.132460       298.261900       106.748100        59.975330         0.038942
1643124150.0000    455335.800000        33.679980    456758.100000       153.571600    455400.900000       -86.232320       283.744000      -145.114600       303.301900       -22.550410       295.980900        98.397210        59.978860         0.158974
1643124151.0000    455455.900000        26.140930    456832.500000       146.054900    455353.100000       -93.765910       284.542800      -152.551400       303.626600       -30.065090       297.194700        90.815090        59.981580         0.081706
1643124152.0000    455484.700000        19.167800    456959.000000       139.074800    455474.100000      -100.731100       284.898900      -159.554600       304.437500       -36.964200       297.250200        83.934590        59.981750        -0.052583
1643124153.0000    455149.500000        12.714090    456654.800000       132.646800    454966.800000      -107.170200       287.145700      -166.261800       305.121300       -43.691570       298.699000        77.015050        59.982600        -0.040099
1643124154.0000    455108.000000         6.877240    456696.300000       126.776200    455205.900000      -113.013800       287.104300      -172.092300       306.500300       -49.380990       298.684800        71.459800        59.982900        -0.121033
1643124155.0000    455336.600000         1.817931    456731.500000       121.716500    455346.700000      -118.095900       284.744000      -177.066300       304.420500       -54.510760       297.695100        66.416520        59.988110         0.106838
1643124156.0000    455436.500000        -2.372341    456868.600000       117.541600    455359.300000      -122.274400       288.406700       178.874600       307.545200       -58.587680       300.632800        62.225850        59.988250         0.073503
1643124157.0000    455473.900000        -6.291542    456861.800000       113.614400    455425.200000      -126.201400       287.262500       175.134500       306.573300       -62.417420       299.886100        58.523630        59.991280         0.269540
1643124158.0000    455417.400000        -9.698084    456826.400000       110.206200    455394.800000      -129.606700       285.553700       171.508200       305.138500       -66.025830       298.056400        54.915730        59.991620        -0.066227
1643124159.0000    455405.400000       -12.114560    456857.000000       107.810400    455263.700000      -132.007400       287.323800       169.267600       306.205900       -68.251440       299.485200        52.548770        59.993340         0.037695
1643124160.0000    455454.200000       -13.876790    456928.800000       106.029000    455455.400000      -133.777800       286.410600       167.451100       305.844800       -70.008130       298.609000        50.861420        59.996040        -0.068503
1643124161.0000    455283.700000       -14.808490    456682.600000       105.099900    455223.600000      -134.716000       288.422700       166.380800       307.476300       -71.215620       300.930500        49.782880        59.997770        -0.106536
1643124162.0000    455221.500000       -15.368400    456713.600000       104.549000    455147.300000      -135.260700       287.355200       165.879300       306.160200       -71.585440       299.313700        49.220620        59.998630        -0.138442
1643124163.0000    454824.100000       -15.469590    456339.900000       104.428800    454876.100000      -135.369800       288.861500       165.417700       308.090800       -71.995000       300.661400        48.866080        60.000350        -0.063285
1643124164.0000    455087.100000       -15.467190    456631.200000       104.433800    455161.300000      -135.363100       288.109300       165.717800       307.807400       -71.709830       300.635700        49.148750        59.999210        -0.111960
1643124165.0000    455072.000000       -15.477130    456598.000000       104.430800    455076.100000      -135.370100       288.882800       165.706500       308.475600       -71.795610       301.448500        49.159080        59.998410         0.040599
1643124166.0000    454986.200000       -15.860300    456347.900000       104.049300    454907.200000      -135.770700       287.870100       165.398100       307.053700       -72.165330       300.658700        48.699300        59.997350        -0.030112
1643124167.0000    454865.400000       -16.866790    456507.700000       103.049700    454886.100000      -136.744600       287.415300       164.241400       306.084100       -73.139600       299.268800        47.593500        59.997860        -0.013181
1643124168.0000    455125.700000       -18.018350    456751.600000       101.891400    455172.500000      -137.900700       288.118100       163.403200       307.746900       -73.960450       300.194800        46.892730        59.995450        -0.086817
1643124169.0000    455110.200000       -19.965530    456611.800000        99.957120    455011.100000      -139.853900       287.775400       161.448200       306.469900       -75.956840       299.169700        44.806680        59.994550         0.105562
1643124170.0000    454948.000000       -22.492350    456416.400000        97.420270    454904.800000      -142.389400       288.757100       158.718700       307.856000       -78.661630       300.831500        42.100200        59.990300        -0.010400
1643124171.0000    454790.100000       -25.733710    456388.500000        94.187690    454736.800000      -145.612200       288.736200       155.242900       307.106100       -82.069790       299.858200        38.627550        59.989790         0.006021
1643124172.0000    454901.100000       -29.645450    456452.300000        90.261070    454921.600000      -149.536200       288.492500       151.596300       307.658200       -85.726230       300.170100        35.001380        59.987230        -0.076407
1643124173.0000    454885.900000       -34.436290    456390.700000        85.495120    454727.500000      -154.320600       290.051000       146.788100       308.078600       -90.649010       301.738800        30.008660        59.984070        -0.019756
1643124174.0000    454699.000000       -40.333530    456198.800000        79.571200    454708.900000      -160.231500       288.504200       140.784600       307.396500       -96.637390       300.577600        24.190190        59.982310         0.017043
1643124175.0000    454809.200000       -46.941470    456324.100000        72.973140    454751.300000      -166.831900       288.157100       134.134600       307.146400      -103.320400       300.103100        17.508220        59.979390        -0.097264
1643124176.0000    454838.900000       -54.425350    456227.500000        65.503180    454634.300000      -174.324400       287.602900       126.751700       306.254100      -110.756400       300.143300        10.025880        59.976610        -0.300076
1643124177.0000    454985.600000       -62.171390    456541.200000        57.722180    455109.100000       177.930500       287.169800       118.985000       307.198900      -118.352800       299.412800         2.539695        59.977460        -0.222117
1643124178.0000    454877.200000       -70.168750    456263.800000        49.736630    454827.100000       169.921600       287.790700       110.903800       306.999400      -126.635400       300.436200        -5.685649        59.979320         0.207460
1643124179.0000    454869.400000       -78.967030    456390.200000        40.958270    454750.400000       161.146700       287.758600       102.222600       306.107600      -135.219300       299.217500       -14.557060        59.976030         0.074099
