Terminal: LT 765  TIJUCO PRETO - ITABERA C3
Tensão base: 765 kV
SOC inicial: 1643124120
SOC final: 1643124179
Taxa: 1 fasores/s
Total de frames faltantes: - 

Tempo_(SOC)           VA_mod_(V)     VA_ang_(graus)     VB_mod_(V)     VB_ang_(graus)     VC_mod_(V)     VC_ang_(graus)     IA_mod_(A)     IA_ang_(graus)     IB_mod_(A)     IB_ang_(graus)     IC_mod_(A)     IC_ang_(graus)     Frequência        Delta_Freq     Faltante
1643124120.0000    423707.100000        11.926910    425517.600000       132.065800    424100.800000      -107.889400       439.505600       142.836800       455.038100       -96.046240       441.879000        24.396770        59.975020         0.261879
1643124121.0000    423645.700000         2.817521    425389.700000       123.008500    423671.600000      -116.981500       440.299600       133.715500       454.950700      -105.266800       443.181800        15.149010        59.973320        -0.083658
1643124122.0000    423447.700000        -6.602057    425087.600000       113.513100    423928.400000      -126.450700       440.495700       124.358000       456.509900      -114.440300       442.430300         6.073935        59.971330        -0.374911
1643124123.0000    423876.000000       -16.613980    425685.700000       103.566300    424019.700000      -136.410500       440.356100       114.617900       454.925300      -124.317200       442.334300        -3.869223        59.972520        -0.162377
1643124124.0000    423927.900000       -26.795760    425685.500000        93.363430    424183.200000      -146.608100       439.850500       104.414300       455.170000      -134.499200       442.107900       -14.037410        59.972190        -0.015390
1643124125.0000    423789.200000       -37.493780    425673.300000        82.650620    424187.000000      -157.297500       439.318200        93.655400       454.591600      -145.217400       440.977900       -24.798230        59.970660        -0.087678
1643124126.0000    423504.200000       -48.741910    425444.900000        71.442830    423685.600000      -168.519000       440.690000        82.328220       455.192400      -156.587200       442.691100       -36.241590        59.968730         0.210027
1643124127.0000    423804.400000       -60.269290    425628.500000        59.864570    424234.100000       179.913600       438.554700        70.533030       453.762900      -168.210300       439.683300       -47.873500        59.966520         0.023817
1643124128.0000    423844.700000       -71.494690    425426.900000        48.656880    424053.200000       168.667300       440.106800        59.527020       455.951500      -179.442500       443.086000       -58.877290        59.967410        -0.302179
1643124129.0000    423735.100000       -83.011130    425649.100000        37.154400    424009.800000       157.196600       438.581300        47.860330       453.501400       168.933200       440.293600       -70.666210        59.968730         0.174448
1643124130.0000    423999.100000       -94.350490    425801.500000        25.825770    424158.700000       145.850200       439.841500        36.652800       454.866200       157.752100       442.007000       -81.825500        59.971160         0.018262
1643124131.0000    423325.200000      -105.985400    425203.100000        14.190570    423532.300000       134.224200       441.140800        25.084860       455.774400       146.142900       443.204500       -93.436850        59.964640        -0.196839
1643124132.0000    423256.200000      -118.287800    425247.400000         1.873935    423606.100000       121.926700       441.172400        12.791380       455.710800       133.899100       442.735500      -105.695900        59.965280        -0.064557
1643124133.0000    423523.000000      -131.178000    425426.100000       -11.018730    423843.800000       109.026900       439.259600        -0.334616       454.372300       120.857100       441.020100      -118.726000        59.963940         0.048122
1643124134.0000    423227.000000      -144.770300    425298.900000       -24.589310    423501.500000        95.464680       441.379500       -13.653390       454.755000       107.385100       442.433600      -132.338900        59.960640         0.073549
1643124135.0000    423633.600000      -159.010300    425555.900000       -38.863780    424037.700000        81.189190       439.583100       -28.031020       454.308500        93.180730       440.782300      -146.469100        59.960350         0.106200
1643124136.0000    423591.200000      -173.453400    425556.100000       -53.302460    423997.700000        66.754040       439.196000       -42.671500       454.121200        78.560860       440.371400      -161.108500        59.958930        -0.245922
1643124137.0000    423628.200000       172.466300    425399.900000       -67.363070    423801.600000        52.660760       439.857800       -56.770090       454.802400        64.295940       442.355200      -175.304000        59.961330        -0.028282
1643124138.0000    423927.900000       159.036600    425713.200000       -80.800250    424170.600000        39.229870       439.461200       -70.207880       454.311600        50.910130       441.265400       171.308200        59.964170        -0.177523
1643124139.0000    423543.100000       146.273300    425444.800000       -93.559880    423811.500000        26.482040       441.023300       -82.826440       455.677100        38.224880       443.322500       158.604900        59.968980         0.206062
1643124140.0000    423668.100000       133.687300    425474.500000      -106.139300    423838.300000        13.887110       440.218400       -95.429090       455.180700        25.575410       442.537900       146.049000        59.967420         0.076135
1643124141.0000    423412.800000       121.667700    425418.400000      -118.182300    423842.700000         1.879960       440.914800      -107.545500       455.129200        13.588140       442.259700       133.918900        59.966240        -0.108060
1643124142.0000    423692.300000       109.907400    425499.400000      -129.926300    423917.600000        -9.895090       439.260700      -119.245600       454.294300         1.820428       441.596600       122.257600        59.967200         0.085780
1643124143.0000    423923.800000        98.758000    425651.300000      -141.078400    424129.700000       -21.056020       439.280800      -130.465300       454.521300        -9.350222       441.392400       111.115900        59.970190         0.038076
1643124144.0000    423725.500000        88.254660    425560.300000      -151.603900    424123.000000       -31.557940       440.361800      -140.915500       455.351000       -19.752600       441.876500       100.640400        59.971910         0.076243
1643124145.0000    423544.400000        78.117790    425307.300000      -161.732600    423852.500000       -41.699070       440.756000      -151.169700       455.240700       -30.024240       442.306400        90.364500        59.972830         0.287090
1643124146.0000    423370.800000        68.464200    425019.500000      -171.408300    423775.500000       -51.375690       441.688200      -160.806600       457.186200       -39.586270       443.377000        80.833650        59.974740         0.108070
1643124147.0000    423723.200000        58.905770    425513.800000       179.049400    424087.000000       -60.909490       439.497500      -170.237200       454.870600       -49.050260       441.357600        71.324730        59.973130        -0.070880
1643124148.0000    423403.300000        49.491340    425278.000000       169.606700    423995.300000       -70.329440       441.130100      -179.662900       457.452200       -58.384280       442.557700        62.037840        59.974800        -0.152188
1643124149.0000    423495.800000        40.440270    425381.800000       160.583200    423908.900000       -79.365010       441.314300       171.352100       456.407100       -67.475150       442.879200        52.902030        59.975190         0.118601
1643124150.0000    423831.200000        31.962810    425588.800000       152.101400    424214.200000       -87.859440       439.346600       162.639700       454.662900       -76.202930       441.406400        44.228490        59.978020         0.115573
1643124151.0000    423956.500000        24.414860    425656.300000       144.578100    424149.600000       -95.402210       439.670900       155.218300       454.838600       -83.711600       442.266100        36.761980        59.981060         0.065242
1643124152.0000    423974.700000        17.441910    425797.600000       137.598000    424270.800000      -102.363000       439.701000       148.298200       454.909700       -90.565010       441.694100        29.885600        59.982180         0.026401
1643124153.0000    423598.700000        10.971730    425429.700000       131.163500    423670.800000      -108.816900       441.951100       141.929500       456.573100       -97.069540       444.558400        23.380030        59.982230        -0.072088
1643124154.0000    423576.300000         5.134532    425530.400000       125.282800    423985.800000      -114.659700       441.806600       136.088700       456.495600      -102.762800       443.337200        17.597050        59.981630        -0.264763
1643124155.0000    423797.000000         0.092955    425512.300000       120.236800    424122.900000      -119.732000       440.464500       130.874100       456.106100      -108.022900       442.278100        12.440270        59.987610         0.020952
1643124156.0000    423907.600000        -4.123148    425661.000000       116.040400    424128.000000      -123.933900       442.253000       127.073700       457.287300      -111.853300       444.462200         8.571198        59.988950         0.087737
1643124157.0000    423979.600000        -8.034910    425699.100000       112.119800    424241.200000      -127.855100       440.766100       123.063900       456.432100      -115.865500       443.276600         4.620756        59.991030         0.209060
1643124158.0000    423890.700000       -11.427750    425620.800000       108.723600    424171.800000      -131.248000       440.963000       119.407800       456.268100      -119.462900       442.878100         1.005961        59.991940        -0.102103
1643124159.0000    423901.700000       -13.857420    425698.000000       106.320200    424057.100000      -133.656000       441.447100       117.221400       456.236600      -121.710800       443.600800        -1.320710        59.993370         0.002440
1643124160.0000    423935.400000       -15.612400    425740.600000       104.542200    424234.600000      -135.421800       440.891900       115.364400       456.097400      -123.542100       443.210500        -3.117347        59.996720        -0.065131
1643124161.0000    423722.600000       -16.562320    425444.600000       103.597000    423952.200000      -136.379900       442.485000       114.549600       458.005900      -124.345500       445.091000        -3.884448        59.998020        -0.011115
1643124162.0000    423706.300000       -17.117810    425531.800000       103.052300    423920.300000      -136.915600       441.739500       113.907900       456.636500      -124.996400       443.879800        -4.586046        59.998470        -0.054733
1643124163.0000    423223.200000       -17.227670    425097.300000       102.919900    423606.000000      -137.032400       443.632600       113.883000       458.592900      -125.046200       445.564700        -4.630509        60.000180        -0.081644
1643124164.0000    423556.900000       -17.218800    425437.600000       102.931900    423929.400000      -137.021400       442.279800       113.895300       457.601000      -124.981400       444.039400        -4.519468        59.999870        -0.011513
1643124165.0000    423508.800000       -17.233160    425381.700000       102.924000    423827.400000      -137.032400       442.758600       113.939300       458.091600      -124.955700       444.928300        -4.482913        59.998130        -0.008186
1643124166.0000    423477.100000       -17.610530    425171.600000       102.548600    423693.500000      -137.431400       441.929200       113.492100       457.606400      -125.436000       444.460400        -4.937862        59.997040         0.045089
1643124167.0000    423326.100000       -18.610710    425330.800000       101.558000    423635.700000      -138.389300       441.878800       112.422200       456.583600      -126.490700       444.051000        -6.084287        59.997140        -0.102120
1643124168.0000    423659.900000       -19.766640    425627.600000       100.392700    424014.300000      -139.554200       441.364300       111.442000       456.389300      -127.370100       442.982500        -6.993856        59.996490         0.019015
1643124169.0000    423645.900000       -21.708480    425496.800000        98.465060    423848.400000      -141.503100       441.055600       109.460800       455.461500      -129.415800       442.676800        -9.055431        59.995760         0.196520
1643124170.0000    423432.700000       -24.244480    425251.100000        95.918410    423689.300000      -144.048500       442.593700       106.995500       457.341500      -131.897800       444.442500       -11.501680        59.991380         0.127068
1643124171.0000    423248.300000       -27.487380    425214.500000        92.692330    423469.200000      -147.264500       442.845100       103.658700       457.173000      -135.261200       444.695700       -14.913400        59.988870        -0.101967
1643124172.0000    423413.500000       -31.393740    425325.200000        88.766170    423728.500000      -151.187100       442.098700        99.796840       456.391600      -139.059800       443.754400       -18.683160        59.987630        -0.149028
1643124173.0000    423403.200000       -36.196090    425238.700000        83.994170    423494.000000      -155.983900       442.999700        95.187330       457.498100      -143.863700       445.526800       -23.426130        59.983640        -0.079595
1643124174.0000    423191.800000       -42.087640    425028.200000        78.068660    423490.200000      -161.891800       442.171100        89.126310       457.216500      -149.845600       444.398200       -29.355700        59.981410         0.051223
1643124175.0000    423273.300000       -48.689960    425141.700000        71.477060    423523.800000      -168.485300       441.997300        82.426740       457.293000      -156.463300       444.299300       -36.070150        59.979350         0.026347
1643124176.0000    423346.500000       -56.169220    425046.300000        64.014750    423409.800000      -175.975800       441.401000        74.965830       456.778500      -164.017400       444.169500       -43.520000        59.975850        -0.359299
1643124177.0000    423479.500000       -63.911340    425413.800000        56.229590    423925.800000       176.287000       441.442000        67.158770       456.574500      -171.656700       443.071300       -51.318280        59.977320        -0.269102
1643124178.0000    423345.700000       -71.913460    425047.900000        48.243300    423586.500000       168.266600       442.065600        59.179760       457.621000      -179.812800       444.888800       -59.260440        59.979990         0.253729
1643124179.0000    423371.700000       -80.709010    425231.500000        39.472940    423527.600000       159.501600       441.571100        50.416050       455.958800       171.418700       443.940400       -68.169820        59.976520         0.148744
