Terminal: LT 765  IVAIPORA FUR - F.IGUACU 60HZ C3
Tensão base: 765 kV
SOC inicial: 1643124120
SOC final: 1643124179
Taxa: 1 fasores/s
Total de frames faltantes: - 

Tempo_(SOC)           VA_mod_(V)     VA_ang_(graus)     VB_mod_(V)     VB_ang_(graus)     VC_mod_(V)     VC_ang_(graus)     IA_mod_(A)     IA_ang_(graus)     IB_mod_(A)     IB_ang_(graus)     IC_mod_(A)     IC_ang_(graus)     Frequência        Delta_Freq     Faltante
1643124120.0000    455436.000000        11.337520    456491.900000       131.090000    453201.200000      -108.590200       717.641500      -169.038000       732.339100       -48.636810       721.569900        71.691600        59.974520         0.001301
1643124121.0000    455393.700000         2.227555    456385.800000       122.017500    452875.300000      -117.686800       718.474900      -178.121000       731.914100       -57.748390       721.897200        62.529370        59.974370         0.013691
1643124122.0000    455227.900000        -7.197508    456180.900000       112.542200    453035.400000      -127.141000       719.602500       172.559800       734.765900       -67.090850       723.662200        53.292450        59.973410        -0.052865
1643124123.0000    455591.500000       -17.184750    456637.600000       102.597100    453146.500000      -137.097900       719.282600       162.694300       733.261000       -76.936420       722.489700        43.346880        59.972420        -0.063557
1643124124.0000    455638.500000       -27.369780    456640.600000        92.399600    453289.800000      -147.294900       719.064600       152.481700       733.400000       -87.140080       722.889000        33.196540        59.972180         0.078688
1643124125.0000    455448.500000       -38.075240    456594.300000        81.681430    453267.500000      -157.993000       718.784700       141.765700       733.434400       -97.834070       722.300400        22.486310        59.970090        -0.069608
1643124126.0000    455289.200000       -49.319780    456455.100000        70.465640    452901.400000      -169.222400       719.312600       130.422300       732.935800      -109.175200       722.107100        11.124040        59.968250         0.025088
1643124127.0000    455475.400000       -60.876640    456524.300000        58.878520    453230.600000       179.193500       717.861300       118.876400       732.361100      -120.744400       721.539600        -0.383984        59.967800         0.056628
1643124128.0000    455553.100000       -72.086940    456420.800000        47.677070    453169.500000       167.969200       719.291100       107.605300       733.942600      -132.058600       723.522100       -11.702150        59.968010        -0.133947
1643124129.0000    455434.300000       -83.610210    456565.100000        36.161290    453129.800000       156.479000       718.254200        96.146420       732.349600      -143.459800       721.547700       -23.143610        59.969170         0.091690
1643124130.0000    455739.500000       -94.942170    456757.900000        24.842580    453290.800000       145.141300       718.610200        84.804920       732.406300      -154.817600       722.024600       -34.519930        59.971190         0.165796
1643124131.0000    455079.000000      -106.563300    456219.300000        13.214160    452732.800000       133.528600       720.088100        73.137030       733.958500      -166.466400       723.028500       -46.181710        59.965450        -0.190988
1643124132.0000    455039.700000      -118.869300    456264.700000         0.898249    452806.300000       121.226000       720.265000        60.870870       734.520600      -178.712800       723.144900       -58.451730        59.964540        -0.110129
1643124133.0000    455255.000000      -131.782500    456419.800000       -12.011560    452975.300000       108.309100       718.804000        47.992950       733.292800       168.395100       722.011700       -71.322580        59.963730        -0.066006
1643124134.0000    455025.700000      -145.354900    456310.600000       -25.573690    452750.600000        94.753180       720.133900        34.430200       733.934800       154.859800       722.721900       -84.902820        59.959790        -0.043489
1643124135.0000    455364.300000      -159.606000    456508.100000       -39.845130    453150.500000        80.477740       718.899900        20.182290       733.160900       140.612200       722.044000       -99.095660        59.960020         0.053285
1643124136.0000    455333.000000      -174.062400    456496.800000       -54.296850    453091.100000        66.025670       718.792400         5.632298       733.112700       126.048600       721.664700      -113.624900        59.959610        -0.138677
1643124137.0000    455371.200000       171.859000    456383.900000       -68.365300    452969.600000        51.936610       719.037600        -8.544477       732.873400       111.777900       722.236800      -127.883000        59.961580         0.069482
1643124138.0000    455632.500000       158.432200    456649.300000       -81.792850    453245.800000        38.513020       718.080100       -21.950590       732.275400        98.413750       721.726000      -141.281300        59.964540        -0.099501
1643124139.0000    455276.000000       145.679000    456410.900000       -94.549360    452970.400000        25.768450       719.543800       -34.795430       733.683700        85.600680       722.743100      -154.098800        59.967440         0.181063
1643124140.0000    455444.200000       133.087600    456473.300000      -107.132100    453030.600000        13.168490       718.735400       -47.260450       732.776700        73.061360       722.429700      -166.605200        59.966210        -0.029694
1643124141.0000    455205.300000       121.068300    456392.300000      -119.172600    453006.800000         1.157146       718.916400       -59.409690       733.392100        60.996790       721.913600      -178.690200        59.966090        -0.118805
1643124142.0000    455342.400000       109.305900    456436.300000      -130.923100    453015.400000       -10.611520       718.799700       -71.073390       733.294600        49.310760       722.191600       169.623900        59.967370         0.097779
1643124143.0000    455604.300000        98.151340    456636.400000      -142.074900    453236.000000       -21.770030       718.442300       -82.245270       732.769000        38.107360       722.089400       158.430200        59.969280        -0.099523
1643124144.0000    455472.100000        87.655880    456540.100000      -152.588600    453247.800000       -32.269330       718.476200       -92.731320       733.101300        27.664700       722.225900       147.971100        59.971160         0.108852
1643124145.0000    455285.400000        77.513990    456319.800000      -162.724000    452989.400000       -42.412310       718.723000      -102.949200       733.103300        17.419120       722.398200       137.764600        59.972610         0.172973
1643124146.0000    455199.000000        67.867450    456139.100000      -172.385300    452966.600000       -52.078720       719.161300      -112.612400       734.230800         7.733213       723.657200       128.101800        59.974080        -0.010944
1643124147.0000    455434.600000        58.303130    456500.500000       178.062700    453198.300000       -61.622760       718.769300      -121.995700       733.488600        -1.628054       722.644500       118.710500        59.973300         0.014633
1643124148.0000    455220.000000        48.904640    456322.300000       168.641100    453138.300000       -71.028790       718.804600      -131.512000       734.048800       -11.156790       723.030000       109.248300        59.973440        -0.253848
1643124149.0000    455269.100000        39.855800    456414.400000       159.611400    453068.600000       -80.062190       719.516200      -140.545500       733.856300       -20.177760       722.828700       100.167900        59.974670         0.043754
1643124150.0000    455519.500000        31.358400    456556.000000       151.109600    453307.100000       -88.571750       717.885800      -149.069600       732.672300       -28.682890       721.489300        91.659740        59.978460         0.066717
1643124151.0000    455621.200000        23.821340    456597.900000       143.593600    453244.500000       -96.107410       718.550200      -156.604600       732.658100       -36.263430       722.497900        84.076990        59.981370         0.054188
1643124152.0000    455679.700000        16.845780    456761.800000       136.614500    453381.800000      -103.071800       718.591700      -163.538200       733.001000       -43.147640       722.075100        77.202550        59.980520        -0.104094
1643124153.0000    455404.300000        10.396550    456499.900000       130.188200    452938.800000      -109.509600       719.871200      -170.011100       733.385100       -49.628600       722.974000        70.655210        59.981920        -0.032237
1643124154.0000    455312.600000         4.565227    456522.300000       124.322600    453144.700000      -115.346500       719.433300      -175.869100       734.088900       -55.469860       722.925500        64.851970        59.984180         0.076620
1643124155.0000    455525.300000        -0.499159    456538.600000       119.260900    453239.800000      -120.427400       718.295300       179.053500       732.668000       -60.608670       722.065500        59.736230        59.987770        -0.015806
1643124156.0000    455646.000000        -4.679244    456703.200000       115.096700    453267.400000      -124.597500       720.262300       174.929000       733.908000       -64.687310       723.561100        55.597680        59.988620         0.000394
1643124157.0000    455698.600000        -8.595511    456703.900000       111.170300    453368.000000      -128.524600       718.940500       171.103300       733.178900       -68.549020       722.601200        51.790160        59.990720         0.118847
1643124158.0000    455611.100000       -12.008570    456630.100000       107.755800    453296.000000      -131.937100       718.210900       167.575300       732.818400       -72.055880       721.982000        48.258110        59.991470        -0.054836
1643124159.0000    455606.200000       -14.422450    456648.300000       105.362600    453166.700000      -134.337200       719.453200       165.187300       733.166600       -74.437400       722.954000        45.872310        59.993120        -0.008654
1643124160.0000    455649.400000       -16.186870    456732.600000       103.578900    453354.000000      -136.106500       718.923800       163.408200       733.282100       -76.223150       722.126300        44.111810        59.996830         0.032102
1643124161.0000    455496.400000       -17.110170    456509.100000       102.655900    453170.300000      -137.040000       719.654400       162.482100       733.927400       -77.161110       723.405900        43.150890        59.997410        -0.135041
1643124162.0000    455437.700000       -17.678460    456539.200000       102.097800    453084.900000      -137.592000       719.494600       161.937500       733.775300       -77.701890       723.087800        42.634090        59.998510        -0.139502
1643124163.0000    455083.900000       -17.778740    456182.700000       101.981100    452831.500000      -137.700600       720.513700       161.744200       735.118000       -77.873870       723.945300        42.454730        59.999690        -0.097428
1643124164.0000    455325.500000       -17.773120    456482.800000       101.989400    453095.800000      -137.687100       720.236500       161.861400       734.677900       -77.723360       723.464400        42.596440        60.000290        -0.060799
1643124165.0000    455364.800000       -17.781120    456486.000000       101.990000    453062.800000      -137.695700       720.731900       161.940100       734.894700       -77.689450       724.284200        42.627170        59.999240         0.013245
1643124166.0000    455271.400000       -18.167960    456231.800000       101.599800    452916.300000      -138.101000       719.675300       161.573000       734.219400       -78.109260       723.639200        42.239360        59.998130         0.100824
1643124167.0000    455178.200000       -19.178280    456381.800000       100.599400    452874.600000      -139.077700       719.150900       160.492800       732.950400       -79.090420       722.171300        41.184220        59.996910        -0.024306
1643124168.0000    455395.300000       -20.325840    456618.400000        99.445320    453144.900000      -140.227400       719.926300       159.465700       734.178000       -80.117840       722.727200        40.194660        59.995000        -0.105226
1643124169.0000    455399.700000       -22.275500    456486.600000        97.509030    452986.800000      -142.184900       719.577700       157.557100       733.528400       -82.061810       722.670200        38.219650        59.994260         0.109364
1643124170.0000    455268.100000       -24.798990    456339.400000        94.971790    452938.100000      -144.718400       720.387100       154.965800       734.356500       -84.642560       723.645600        35.671820        59.990520         0.035172
1643124171.0000    455127.800000       -28.038510    456318.900000        91.739590    452816.200000      -147.941300       720.222500       151.683700       734.187400       -87.889660       723.177500        32.396590        59.989890        -0.047548
1643124172.0000    455204.400000       -31.955080    456351.300000        87.808760    452965.800000      -151.871000       720.640300       147.846300       735.282800       -91.792020       724.063600        28.554010        59.987590        -0.054961
1643124173.0000    455234.200000       -36.740360    456335.300000        83.047840    452795.200000      -156.648200       721.398200       143.084600       734.734700       -96.544270       724.451800        23.739590        59.984790        -0.068664
1643124174.0000    455016.400000       -42.645370    456120.700000        77.120800    452752.300000      -162.562300       720.162000       137.146700       734.459400      -102.490900       723.786300        17.849410        59.982190        -0.063283
1643124175.0000    455150.500000       -49.252060    456242.600000        70.522640    452796.500000      -169.167700       719.937000       130.494000       733.996900      -109.148000       723.380100        11.190160        59.980340        -0.006452
1643124176.0000    455176.100000       -56.737620    456168.200000        63.050250    452705.600000      -176.659900       719.767500       123.059800       733.562100      -116.630300       723.373400         3.693676        59.977910        -0.132686
1643124177.0000    455250.200000       -64.483930    456395.300000        55.271140    453078.500000       175.597400       719.941300       115.172800       734.516300      -124.437600       723.261000        -4.102805        59.978350        -0.141763
1643124178.0000    455131.500000       -72.485960    456136.000000        47.277710    452822.500000       167.581800       720.471200       107.166800       734.968400      -132.485600       724.430200       -12.135430        59.978040         0.061601
1643124179.0000    455181.300000       -81.283660    456287.300000        38.502490    452767.500000       158.809500       720.014400        98.460520       733.983300      -141.147100       723.270200       -20.881900        59.975230        -0.031770
