Terminal: LT 765  IVAIPORA FUR - F.IGUACU 60HZ C1
Tensão base: 765 kV
SOC inicial: 1643124120
SOC final: 1643124179
Taxa: 1 fasores/s
Total de frames faltantes: - 

Tempo_(SOC)           VA_mod_(V)     VA_ang_(graus)     VB_mod_(V)     VB_ang_(graus)     VC_mod_(V)     VC_ang_(graus)     IA_mod_(A)     IA_ang_(graus)     IB_mod_(A)     IB_ang_(graus)     IC_mod_(A)     IC_ang_(graus)     Frequência        Delta_Freq     Faltante
1643124120.0000    455207.700000        11.304290    461717.600000       131.101700    456813.900000      -108.543700       732.763700      -167.457400       747.921600       -47.120000       733.370200        73.142890        59.974400         0.023393
1643124121.0000    455193.700000         2.193817    461632.300000       122.029500    456493.100000      -117.640200       733.512800      -176.550000       747.716800       -56.223980       733.793300        63.966920        59.973350        -0.086082
1643124122.0000    455016.800000        -7.227615    461414.800000       112.557300    456646.100000      -127.093500       734.385000       174.098800       750.444800       -65.593030       735.654400        54.738770        59.973510        -0.116335
1643124123.0000    455378.100000       -17.217310    461883.100000       102.612300    456753.300000      -137.049400       734.740600       164.231600       748.682300       -75.406620       734.551900        44.781230        59.972000        -0.188801
1643124124.0000    455439.100000       -27.402320    461885.000000        92.411420    456888.200000      -147.250500       733.928300       154.050600       749.068700       -85.631820       734.604600        34.628530        59.971680         0.045161
1643124125.0000    455226.300000       -38.107750    461823.200000        81.692460    456859.900000      -157.947100       733.927900       143.323200       749.038900       -96.306180       734.229500        23.917120        59.971240         0.062201
1643124126.0000    455079.100000       -49.356730    461690.700000        70.473840    456521.200000      -169.177200       734.283900       131.949700       748.546100      -107.648700       734.176300        12.562010        59.967440         0.050814
1643124127.0000    455269.500000       -60.911560    461761.100000        58.888080    456843.500000       179.241100       732.735300       120.421700       748.035400      -119.233200       733.594000         1.048917        59.966730        -0.037725
1643124128.0000    455338.300000       -72.117220    461650.100000        47.690550    456769.800000       168.017800       734.527500       109.185700       749.642600      -130.536800       735.587000       -10.251610        59.967680        -0.241902
1643124129.0000    455226.000000       -83.643110    461797.200000        36.171130    456739.100000       156.525300       733.412000        97.679860       748.037000      -141.948700       733.405200       -21.729330        59.969530         0.156982
1643124130.0000    455527.200000       -94.972510    461998.300000        24.855990    456901.100000       145.189100       733.757500        86.335340       747.952700      -153.300900       734.117700       -33.091850        59.971330         0.139079
1643124131.0000    454881.300000      -106.597000    461458.400000        13.226460    456330.800000       133.574900       735.005200        74.675740       749.478300      -164.929500       735.015100       -44.765560        59.965560        -0.158588
1643124132.0000    454844.400000      -118.899300    461506.100000         0.911755    456427.300000       121.275600       735.206800        62.390530       750.009200      -177.189500       735.314500       -56.981470        59.964480        -0.208211
1643124133.0000    455051.800000      -131.816400    461649.800000       -12.000560    456583.600000       108.356700       734.190300        49.523040       749.114800       169.903500       734.250400       -69.873200        59.963570        -0.088823
1643124134.0000    454817.700000      -145.387500    461530.000000       -25.562780    456329.300000        94.799710       735.311400        35.989230       749.308700       156.387800       734.545900       -83.441290        59.959850        -0.033042
1643124135.0000    455166.800000      -159.637900    461746.600000       -39.831800    456765.700000        80.526860       734.069700        21.750730       749.103100       142.131900       734.301300       -97.633310        59.960330         0.024423
1643124136.0000    455122.400000      -174.094700    461733.000000       -54.285560    456711.900000        66.073910       734.007300         7.204455       748.680500       127.565800       734.074500      -112.185000        59.959860        -0.163276
1643124137.0000    455165.700000       171.825900    461621.000000       -68.354280    456589.900000        51.983570       734.142000        -7.015760       748.443700       113.325900       734.213900      -126.445500        59.961570         0.055916
1643124138.0000    455420.800000       158.398500    461897.400000       -81.783170    456851.600000        38.556470       733.231300       -20.406800       747.780700        99.930200       733.784100      -139.834200        59.964890         0.014554
1643124139.0000    455057.800000       145.645400    461643.000000       -94.537740    456571.600000        25.814380       734.496900       -33.267540       749.112400        87.106450       734.669400      -152.653800        59.966860         0.088626
1643124140.0000    455244.100000       133.053300    461704.100000      -107.122900    456642.100000        13.214450       734.190300       -45.718850       748.456200        74.596730       734.414900      -165.197700        59.965760        -0.001078
1643124141.0000    455002.500000       121.036200    461630.900000      -119.159400    456618.800000         1.205934       733.789100       -57.867450       748.689300        62.525420       733.945600      -177.252200        59.966250        -0.152992
1643124142.0000    455147.200000       109.276500    461664.400000      -130.908200    456622.100000       -10.561860       733.975500       -69.522370       748.352400        50.839430       734.439000       171.077400        59.967880         0.051181
1643124143.0000    455401.700000        98.116680    461875.200000      -142.065800    456846.300000       -21.727170       733.528600       -80.697790       748.408100        39.649150       733.967000       159.860300        59.969310        -0.004758
1643124144.0000    455258.600000        87.625280    461783.400000      -152.575000    456845.700000       -32.221600       733.590000       -91.185040       748.739800        29.155700       734.399700       149.429300        59.971740         0.124760
1643124145.0000    455092.800000        77.481600    461561.700000      -162.710900    456600.500000       -42.365530       733.529100      -101.399800       748.530800        18.953620       734.135900       139.205600        59.972460         0.164585
1643124146.0000    455007.200000        67.832820    461384.900000      -172.374300    456580.500000       -52.032510       734.643200      -111.098200       749.634800         9.260779       735.547500       129.531500        59.973510        -0.022579
1643124147.0000    455231.200000        58.269420    461726.500000       178.072000    456788.700000       -61.575990       733.873200      -120.470300       748.882400        -0.109269       734.736400       120.134500        59.972840         0.013392
1643124148.0000    455009.200000        48.874620    461556.500000       168.654200    456739.100000       -70.979580       733.652000      -129.982200       750.043100        -9.616304       734.863300       110.693300        59.973420        -0.270955
1643124149.0000    455052.000000        39.824560    461643.100000       159.625800    456671.700000       -80.014540       734.338100      -139.013600       749.279100       -18.616700       734.542700       101.620200        59.975640         0.084724
1643124150.0000    455305.600000        31.324950    461798.900000       151.119900    456918.800000       -88.527260       732.965200      -147.524800       748.287800       -27.171410       733.677100        93.125640        59.977530         0.010668
1643124151.0000    455432.100000        23.786100    461850.900000       143.603700    456855.600000       -96.060070       733.879300      -155.067000       748.694200       -34.712230       734.598700        85.498920        59.980300        -0.050938
1643124152.0000    455462.800000        16.817660    461988.500000       136.628600    456992.400000      -103.024600       733.502300      -161.985600       748.469000       -41.629810       734.088400        78.609090        59.981170        -0.130513
1643124153.0000    455189.600000        10.364060    461726.500000       130.200000    456546.300000      -109.462700       734.951900      -168.459400       748.711400       -48.103260       734.861600        72.082240        59.981950        -0.039113
1643124154.0000    455119.500000         4.532893    461751.400000       124.335500    456754.700000      -115.298200       734.613800      -174.334800       749.619500       -53.927270       734.722100        66.289090        59.984780         0.103994
1643124155.0000    455302.700000        -0.533084    461772.200000       119.271300    456848.700000      -120.382800       733.363400      -179.413700       748.371900       -59.081950       733.921600        61.182640        59.988150         0.111930
1643124156.0000    455432.900000        -4.712940    461938.300000       115.107600    456874.900000      -124.552600       735.227400       176.451700       749.765700       -63.154010       735.547600        57.043310        59.987730        -0.036743
1643124157.0000    455486.000000        -8.627170    461936.300000       111.182200    456979.900000      -128.477300       733.766800       172.647000       749.012000       -67.027540       734.704900        53.254430        59.990980         0.106344
1643124158.0000    455406.800000       -12.041430    461866.300000       107.766300    456898.400000      -131.890000       733.209700       169.117700       748.088100       -70.543000       733.731600        49.705870        59.991930         0.033546
1643124159.0000    455410.700000       -14.450830    461888.500000       105.377400    456785.600000      -134.287900       734.461500       166.761700       748.667500       -72.902950       734.645900        47.290470        59.994190         0.021771
1643124160.0000    455437.900000       -16.220900    461965.200000       103.590900    456966.900000      -136.061200       733.710000       164.933400       748.752500       -74.690640       734.242100        45.543800        59.995700        -0.058889
1643124161.0000    455295.100000       -17.143370    461733.500000       102.668200    456764.200000      -136.992900       734.681300       164.021900       749.259900       -75.634690       735.491300        44.613190        59.998390        -0.048974
1643124162.0000    455231.600000       -17.712330    461774.100000       102.109100    456689.800000      -137.547300       734.704300       163.458100       749.208900       -76.148540       735.083300        44.048190        59.998320        -0.071815
1643124163.0000    454869.700000       -17.808040    461411.700000       101.994300    456438.900000      -137.650800       735.529700       163.257200       750.419300       -76.350980       736.059100        43.876560        60.000110        -0.127835
1643124164.0000    455128.600000       -17.805740    461716.700000       102.000200    456709.100000      -137.641000       735.477300       163.407500       750.267400       -76.219260       735.542800        44.010030        60.000850         0.008542
1643124165.0000    455172.100000       -17.813270    461726.900000       102.001500    456673.700000      -137.649000       735.785600       163.450400       750.450100       -76.174120       735.983300        44.055990        59.999310         0.025157
1643124166.0000    455065.200000       -18.202460    461444.300000       101.608900    456516.700000      -138.056700       734.721900       163.108900       749.595900       -76.588330       735.604400        43.672780        59.997720         0.124923
1643124167.0000    454969.200000       -19.210810    461623.000000       100.610600    456493.300000      -139.031300       734.145300       162.034800       748.437700       -77.569460       733.893400        42.619760        59.997230         0.058636
1643124168.0000    455192.800000       -20.357490    461870.500000        99.456960    456753.100000      -140.179100       734.938300       161.011000       749.637100       -78.601260       734.922700        41.599200        59.995180        -0.135845
1643124169.0000    455192.200000       -22.306560    461725.000000        97.519730    456585.700000      -142.138400       734.731600       159.097000       748.974200       -80.547580       734.973600        39.661340        59.994260         0.119945
1643124170.0000    455061.400000       -24.832740    461575.000000        94.982510    456548.900000      -144.672600       735.206400       156.495300       750.094800       -83.128850       735.875700        37.079340        59.990090        -0.008228
1643124171.0000    454910.900000       -28.073320    461542.700000        91.749590    456402.500000      -147.894900       735.381800       153.234600       749.841700       -86.373120       735.245500        33.809100        59.989850         0.008914
1643124172.0000    454995.700000       -31.988740    461579.500000        87.819850    456559.400000      -151.823500       735.682900       149.365600       750.692300       -90.260230       736.100900        29.959830        59.987320        -0.066200
1643124173.0000    455040.300000       -36.774530    461568.400000        83.058650    456414.100000      -156.603300       736.485000       144.625800       750.740400       -95.012180       736.633700        25.158020        59.984440        -0.057318
1643124174.0000    454818.100000       -42.680630    461353.700000        77.129130    456347.000000      -162.518000       735.126000       138.673600       750.160600      -100.974100       735.762300        19.255210        59.981960         0.009450
1643124175.0000    454939.800000       -49.286250    461474.300000        70.533450    456398.800000      -169.121200       734.900600       132.019200       749.322000      -107.618700       735.300200        12.589840        59.980230         0.022016
1643124176.0000    454967.100000       -56.771690    461390.300000        63.058480    456300.100000      -176.613200       734.612000       124.577300       748.993300      -115.099400       735.275700         5.121356        59.977330        -0.111579
1643124177.0000    455040.300000       -64.515270    461628.700000        55.281560    456678.600000       175.644900       734.596300       116.695800       749.835600      -122.907600       735.084200        -2.671070        59.977610        -0.196431
1643124178.0000    454932.400000       -72.518920    461376.500000        47.288480    456440.700000       167.630100       735.501800       108.682600       750.506000      -130.958300       736.158400       -10.692280        59.978420         0.113595
1643124179.0000    454966.900000       -81.317090    461527.300000        38.511840    456375.000000       158.856000       735.202000        99.998250       749.492100      -139.650300       735.290500       -19.462880        59.974850        -0.030424
