Terminal: LT 765  ITABERA - TIJUCO PRETO C2
Tensão base: 765 kV
SOC inicial: 1643124120
SOC final: 1643124179
Taxa: 1 fasores/s
Total de frames faltantes: - 

Tempo_(SOC)           VA_mod_(V)     VA_ang_(graus)     VB_mod_(V)     VB_ang_(graus)     VC_mod_(V)     VC_ang_(graus)     IA_mod_(A)     IA_ang_(graus)     IB_mod_(A)     IB_ang_(graus)     IC_mod_(A)     IC_ang_(graus)     Frequência        Delta_Freq     Faltante
1643124120.0000    451353.800000        15.534690    454071.500000       135.581100    452016.500000      -104.267100       290.667900        28.898340       315.144600       149.623400       304.934800       -90.251910        59.974750         0.170767
1643124121.0000    451333.900000         6.432399    454026.600000       126.509300    451791.600000      -113.357500       291.075500        19.606310       313.682600       140.451400       304.400500       -99.760770        59.973750        -0.184625
1643124122.0000    451142.800000        -2.981863    453740.400000       117.057500    451802.600000      -122.802200       291.275600        10.193110       316.674600       130.801300       306.794800      -108.828600        59.972000        -0.267942
1643124123.0000    451421.500000       -12.975490    454125.500000       107.099300    451898.500000      -132.764300       293.065200         0.479779       316.685700       121.272600       306.576400      -118.773200        59.972240        -0.093350
1643124124.0000    451451.700000       -23.163100    454121.700000        96.897970    452001.200000      -142.962300       292.885100        -9.677128       316.912500       111.092900       307.131500      -128.930200        59.971550         0.085671
1643124125.0000    451285.400000       -33.866910    454053.800000        86.182790    451957.500000      -153.661000       292.321000       -20.303730       316.596200       100.459400       305.967000      -139.435500        59.971060        -0.018000
1643124126.0000    451179.400000       -45.109790    453984.400000        74.962410    451719.200000      -164.889300       292.119700       -31.965290       315.496000        89.021040       304.971300      -151.169800        59.968110         0.130279
1643124127.0000    451383.600000       -56.676460    454055.500000        63.372130    452009.000000      -176.481900       289.717400       -43.200360       314.652500        77.641820       303.613100      -162.167000        59.966480        -0.086371
1643124128.0000    451468.500000       -67.870570    454045.200000        52.183160    452015.700000       172.315600       291.902100       -54.599520       315.617300        66.021310       306.441000      -173.928300        59.968120        -0.266811
1643124129.0000    451335.600000       -79.409650    454113.100000        40.652470    451930.900000       160.801800       290.074800       -65.937940       314.096000        54.985910       303.402400       174.889500        59.969220         0.160357
1643124130.0000    451613.500000       -90.733470    454309.800000        29.337980    452096.400000       149.474100       291.825800       -77.350040       315.247700        43.512030       305.112300       163.407400        59.971080         0.068740
1643124131.0000    451025.400000      -102.344900    453778.800000        17.721910    451567.400000       137.867600       292.524800       -89.240700       315.938000        31.644840       305.372100       151.530600        59.965350        -0.134195
1643124132.0000    450968.800000      -114.648200    453791.500000         5.411027    451609.900000       125.568800       292.134200      -101.640700       316.083900        19.307870       305.245400       139.266000        59.964750        -0.075474
1643124133.0000    451160.300000      -127.573500    453940.400000        -7.509349    451748.700000       112.641800       290.148200      -114.270000       314.645900         6.578570       303.821600       126.681400        59.963760        -0.001203
1643124134.0000    450938.800000      -141.127900    453793.800000       -21.067210    451581.900000        99.093260       292.364200      -128.038900       315.426100        -6.980009       304.137100       112.763300        59.961290         0.030587
1643124135.0000    451242.200000      -155.393700    454004.900000       -35.342940    451901.800000        84.810710       291.109800      -142.062700       315.512900       -21.148410       304.494800        98.897310        59.961020         0.173824
1643124136.0000    451275.600000      -169.853700    454064.500000       -49.796440    451907.100000        70.357890       289.471000      -156.563300       314.227100       -35.657090       302.989500        84.366050        59.959590        -0.259546
1643124137.0000    451376.300000       176.069500    454054.200000       -63.867420    451910.900000        56.270910       289.827100      -170.759000       313.257800       -49.942680       303.547200        69.942000        59.960870        -0.046297
1643124138.0000    451599.600000       162.634400    454285.700000       -77.304630    452142.700000        42.835450       289.682300       175.912400       313.518000       -63.223870       303.159400        56.791340        59.964000        -0.163174
1643124139.0000    451318.300000       149.893200    454111.500000       -90.047290    451938.600000        30.106030       291.066800       162.966600       314.337200       -76.170850       304.389900        43.700550        59.967260         0.076437
1643124140.0000    451405.700000       137.295800    454134.100000      -102.635400    451932.300000        17.506340       290.553500       150.504700       314.002700       -88.707630       304.084000        31.221270        59.966830         0.067642
1643124141.0000    451260.400000       125.278300    454063.400000      -114.672800    451941.600000         5.487041       289.946600       138.200000       314.426200      -100.744200       302.962100        19.192180        59.966920        -0.025941
1643124142.0000    451330.200000       113.514500    454057.800000      -126.424700    451906.400000        -6.279907       290.026300       126.869400       313.660800      -112.350700       303.498600         7.584237        59.967250        -0.012374
1643124143.0000    451576.700000       102.353300    454252.000000      -137.580100    452092.500000       -17.444670       289.826400       115.774200       313.732200      -123.526200       303.714900        -3.495609        59.970590         0.129735
1643124144.0000    451461.800000        91.861700    454166.800000      -148.089700    452114.400000       -27.941650       290.243100       105.049100       314.716300      -134.101400       304.086500       -14.046360        59.971680         0.101878
1643124145.0000    451344.700000        81.718520    453987.000000      -158.226800    451933.700000       -38.086750       289.538900        94.744310       313.845700      -144.339900       303.441100       -24.392640        59.972780         0.292710
1643124146.0000    451277.500000        72.079550    453848.900000      -167.876100    451898.600000       -47.738860       290.152500        84.902470       315.062400      -154.360900       304.581800       -34.131820        59.976090         0.226415
1643124147.0000    451374.800000        62.513570    454072.500000      -177.436300    452011.300000       -57.288450       290.444700        75.868670       314.561300      -163.336200       304.372300       -43.272850        59.973610        -0.053540
1643124148.0000    451213.100000        53.112470    453964.100000       173.150300    451958.900000       -66.689660       290.764400        66.046260       316.647000      -173.071700       305.662200       -52.875950        59.974450        -0.099228
1643124149.0000    451276.100000        44.071720    454020.000000       164.119300    451950.600000       -75.726520       291.645900        57.066270       315.838900       177.929100       304.957000       -62.012240        59.975400        -0.003206
1643124150.0000    451536.100000        35.554970    454217.700000       155.601000    452191.200000       -84.252610       288.954000        48.860400       313.612100       169.655100       303.226800       -70.292760        59.978640         0.150646
1643124151.0000    451635.400000        28.021690    454291.700000       148.082500    452168.900000       -91.779660       290.211600        41.390120       313.717700       162.115800       304.197000       -77.927560        59.980570         0.031426
1643124152.0000    451659.700000        21.049300    454378.100000       141.108300    452238.200000       -98.746930       290.447300        34.342430       314.530600       155.211600       304.148800       -84.749040        59.982330         0.092504
1643124153.0000    451406.400000        14.610500    454168.700000       134.686700    451888.400000      -105.172400       292.129100        27.554550       314.818500       148.452600       305.194900       -91.759570        59.982510        -0.025189
1643124154.0000    451375.500000         8.775641    454159.200000       128.825800    452053.000000      -111.018200       291.966600        21.695580       316.608200       142.691700       305.436600       -97.287410        59.981590        -0.372074
1643124155.0000    451556.500000         3.702714    454216.700000       123.754400    452163.100000      -116.103500       290.007100        16.875260       314.454200       137.617600       304.417000      -102.255500        59.987750        -0.033049
1643124156.0000    451627.900000        -0.466460    454292.800000       119.597100    452161.500000      -120.265600       293.776600        12.638550       317.769700       133.441300       307.526800      -106.587200        59.988650         0.160002
1643124157.0000    451634.300000        -4.393810    454298.400000       115.664700    452193.400000      -124.197700       292.718000         8.986256       316.718000       129.648500       306.950700      -110.299000        59.991050         0.218755
1643124158.0000    451631.400000        -7.809796    454303.300000       112.246200    452208.900000      -127.613800       291.093900         5.403676       315.020500       126.149700       305.166000      -113.833800        59.991030        -0.209810
1643124159.0000    451571.000000       -10.213450    454293.900000       109.857200    452081.000000      -130.003700       292.849100         3.045713       316.238900       123.810600       306.316000      -116.266500        59.993680        -0.017730
1643124160.0000    451631.200000       -11.984270    454348.600000       108.073000    452231.800000      -131.782800       291.900600         1.250062       315.854200       122.035800       305.550900      -117.951400        59.997250         0.023963
1643124161.0000    451490.300000       -12.906730    454175.200000       107.154200    452044.600000      -132.706700       293.346400         0.125870       317.376600       120.841300       307.575900      -119.119500        59.997570        -0.021452
1643124162.0000    451430.900000       -13.470430    454176.900000       106.593200    451990.200000      -133.261500       292.783000        -0.317984       316.242500       120.550300       305.945500      -119.577300        59.997380        -0.181201
1643124163.0000    451144.300000       -13.561700    453890.300000       106.488200    451802.400000      -133.359600       293.459800        -0.923262       317.572900       119.970600       307.270200      -120.003300        60.000260         0.044785
1643124164.0000    451315.700000       -13.563950    454101.200000       106.490000    451977.200000      -133.355500       293.350400        -0.531583       317.330300       120.281200       307.388900      -119.672800        59.999280        -0.029571
1643124165.0000    451288.700000       -13.568170    454067.800000       106.493600    451899.300000      -133.355300       293.875000        -0.607629       318.134300       120.211600       308.002400      -119.752300        59.998670         0.069792
1643124166.0000    451189.700000       -13.957690    453831.300000       106.104100    451727.700000      -133.760400       292.958500        -0.915890       316.889000       119.880100       307.194400      -120.145400        59.997710        -0.030963
1643124167.0000    451110.700000       -14.967120    453984.700000       105.097100    451751.500000      -134.743600       292.580900        -1.951503       315.961000       118.917700       305.742300      -121.134700        59.998030         0.037202
1643124168.0000    451279.200000       -16.112030    454119.800000       103.947900    451920.300000      -135.895700       293.723400        -2.875925       317.892100       118.007100       307.291200      -121.974100        59.996230         0.067310
1643124169.0000    451263.000000       -18.061730    453991.800000       102.008900    451784.400000      -137.851600       293.333300        -4.761674       317.059600       116.138400       306.324300      -123.930400        59.994540         0.100290
1643124170.0000    451156.900000       -20.579320    453855.700000        99.481580    451725.400000      -140.377100       293.943900        -7.531528       317.697900       113.321700       307.474900      -126.723200        59.991420         0.036777
1643124171.0000    451057.700000       -23.824240    453881.300000        96.244350    451633.200000      -143.604500       293.408000       -10.966070       316.883300       110.017000       306.395600      -130.151400        59.989170        -0.057974
1643124172.0000    451097.100000       -27.736800    453876.200000        92.319700    451725.700000      -147.527200       293.683000       -14.622860       317.682600       106.284200       307.202100      -133.793100        59.987530        -0.074695
1643124173.0000    451100.100000       -32.516480    453857.100000        87.556880    451615.000000      -152.301600       295.269400       -19.516090       317.895500       101.336000       308.012200      -138.889700        59.984310        -0.011501
1643124174.0000    450925.500000       -38.427410    453681.100000        81.628300    451559.500000      -158.220800       293.582800       -25.428190       317.335500        95.342130       307.336700      -144.669500        59.981500         0.044627
1643124175.0000    451062.900000       -45.036530    453820.900000        75.028720    451625.400000      -164.823600       292.990300       -32.084100       317.077400        88.744030       306.668800      -151.319200        59.979790        -0.074119
1643124176.0000    451056.500000       -52.518970    453720.400000        67.555590    451502.300000      -172.312400       292.819600       -39.498790       316.107700        81.294190       306.260700      -158.828200        59.977770        -0.287078
1643124177.0000    451214.200000       -60.271570    453980.300000        59.777830    451900.000000       179.932800       292.571900       -47.226770       317.340800        73.671150       306.203700      -166.241300        59.977630        -0.173842
1643124178.0000    451115.300000       -68.266490    453789.200000        51.792530    451684.500000       171.931700       292.926700       -55.330220       316.998200        65.361550       307.078000      -174.589200        59.979320         0.321002
1643124179.0000    451089.900000       -77.065740    453852.700000        43.003830    451630.800000       163.148200       292.968700       -63.996260       316.001900        56.837820       305.789800       176.622200        59.975640         0.137144
