Terminal: SPSTCH_500_LTSPSTCA_1
Tensão base: 500 kV
SOC inicial: 1643124120
SOC final: 1643124179
Taxa: 1 fasores/s
Total de frames faltantes: - 

Tempo_(SOC)           VA_mod_(V)     VA_ang_(graus)     VB_mod_(V)     VB_ang_(graus)     VC_mod_(V)     VC_ang_(graus)     IA_mod_(A)     IA_ang_(graus)     IB_mod_(A)     IB_ang_(graus)     IC_mod_(A)     IC_ang_(graus)     Frequência        Delta_Freq     Faltante
1643124120.0000    308157.800000        23.960680    310091.400000       143.618400    311382.000000       -95.979900       104.525700       122.747100       109.435900      -125.227800       127.116800         0.952432        59.973230         0.262408
1643124121.0000    308009.400000        14.837660    309879.600000       134.590000    310784.800000      -105.065200       106.312400       114.261800       111.869600      -134.911000       131.612900        -8.054209        59.971940        -0.188718
1643124122.0000    307943.800000         5.446161    309564.600000       125.055500    311248.500000      -114.568400       106.764600       103.889100       112.852100      -142.922100       128.513600       -16.670900        59.972310        -0.473136
1643124123.0000    308389.300000        -4.642152    310270.300000       115.080100    311305.500000      -124.557600       103.913400        95.525350       110.048900      -153.478100       128.896300       -26.444210        59.971470        -0.464875
1643124124.0000    308441.400000       -14.826290    310296.000000       104.865200    311480.300000      -134.761000       104.370900        84.977620       109.195300      -163.825100       127.898100       -37.105720        59.972630         0.000886
1643124125.0000    308387.400000       -25.511140    310344.900000        94.156940    311588.200000      -145.442800       102.264800        74.305430       107.279900      -174.306400       125.628600       -47.755840        59.972080        -0.266087
1643124126.0000    307899.000000       -36.738150    310042.000000        82.994560    310894.000000      -156.607400       106.724200        63.016210       110.944600       173.647300       131.229100       -59.788240        59.968380         0.170833
1643124127.0000    308269.700000       -48.243410    310226.600000        71.400760    311583.400000      -168.189500       104.007100        50.334400       108.740200       162.332900       126.133300       -71.525190        59.967840         0.031965
1643124128.0000    308251.100000       -59.522000    309901.200000        60.182910    311121.300000      -179.482900       105.054700        40.184410       110.720000       150.668600       130.528500       -82.166090        59.967070        -0.407758
1643124129.0000    308272.800000       -71.000720    310341.700000        48.717340    311298.300000       169.110700       103.684400        28.878850       107.758000       139.097000       128.191600       -94.059550        59.968410        -0.020043
1643124130.0000    308309.900000       -82.396510    310304.300000        37.335610    311231.200000       157.711700       105.470600        17.982730       109.133200       128.647500       129.409600      -104.975500        59.971870         0.124306
1643124131.0000    307876.200000       -93.993990    309930.400000        25.738820    310813.300000       146.122500       104.645300         5.919341       109.390700       116.531300       129.718000      -116.738500        59.963150        -0.251748
1643124132.0000    307884.500000      -106.264300    310011.500000        13.435480    311017.700000       133.846900       104.114000        -6.698081       108.418500       104.365500       127.615100      -129.325700        59.963740        -0.305778
1643124133.0000    308064.800000      -119.125100    309932.100000         0.587513    311027.100000       120.950300       104.214100       -21.709920       112.255500        89.267490       129.847400      -142.747000        59.963130        -0.005970
1643124134.0000    307786.000000      -132.751300    310069.700000       -13.011460    310825.200000       107.405200       105.280200       -33.932210       109.590500        76.215230       130.331000      -157.025800        59.960400        -0.048305
1643124135.0000    308154.500000      -146.985900    310210.900000       -27.294160    311289.200000        93.108600       104.125600       -48.836580       108.539900        61.921010       128.513900      -171.490100        59.959930         0.202779
1643124136.0000    308180.200000      -161.404700    310334.600000       -41.728490    311433.100000        78.695600       102.674400       -64.191350       106.623000        46.909080       125.371400       173.337700        59.958510        -0.298280
1643124137.0000    308163.600000      -175.501700    310100.600000       -55.768190    311044.500000        64.595560       102.605500       -77.290050       108.109600        32.785630       128.354400       160.251700        59.962340         0.144399
1643124138.0000    308541.600000       171.072100    310450.300000       -69.225460    311559.300000        51.150740        99.983090       -90.404430       105.577000        20.524240       124.068100       147.535700        59.966220        -0.164590
1643124139.0000    308049.300000       158.294600    310122.400000       -81.972540    311004.800000        38.415150       104.854600      -102.668200       109.103000         7.110997       130.394200       134.210900        59.969350         0.389341
1643124140.0000    308234.600000       145.717800    310204.200000       -94.552800    311149.400000        25.817170       101.997500      -115.354500       107.003500        -4.964356       127.106700       122.082600        59.967020         0.056813
1643124141.0000    307885.100000       133.695200    310081.400000      -106.602300    311039.300000        13.816590       104.442800      -126.858600       107.909500       -17.028550       129.329700       109.704100        59.965310        -0.296142
1643124142.0000    308288.100000       121.930400    310257.900000      -118.335400    311189.300000         2.033266       101.645000      -138.755000       106.658400       -29.213540       127.757000        98.334250        59.966620         0.011249
1643124143.0000    308469.700000       110.766100    310280.400000      -129.514500    311352.300000        -9.162860       100.909200      -149.629900       107.032200       -39.658220       126.470500        87.983060        59.969680         0.076139
1643124144.0000    308270.700000       100.265700    310198.800000      -140.044300    311347.800000       -19.660380       102.708800      -160.101300       107.727000       -50.410190       127.929900        76.990060        59.971930         0.173508
1643124145.0000    308189.500000        90.171820    310085.700000      -150.122500    311189.900000       -29.753130       101.826800      -170.787300       107.126100       -60.915570       127.271100        66.339580        59.972820         0.332749
1643124146.0000    308102.800000        80.557160    309925.800000      -159.784200    311276.100000       -39.403320       102.545400       178.398300       106.504700       -70.632140       125.741400        55.786630        59.975180         0.003815
1643124147.0000    308428.200000        70.969470    310275.800000      -169.349500    311509.800000       -48.975200        99.182880       169.860200       105.472500       -79.708160       124.017200        47.831120        59.972920         0.078421
1643124148.0000    308189.700000        61.579010    310094.000000      -178.793100    311551.500000       -58.382520       100.859400       159.101100       106.414700       -89.286320       123.924000        37.600260        59.974570        -0.248235
1643124149.0000    308144.400000        52.512390    310143.700000       172.197400    311288.500000       -67.402660       102.616200       151.182500       106.755000       -98.238780       126.679700        28.484000        59.976910         0.314694
1643124150.0000    308603.000000        44.055180    310437.700000       163.740900    311644.900000       -75.887130        99.054210       142.004400       105.395400      -108.316900       125.131200        19.710810        59.980350         0.242515
1643124151.0000    308622.800000        36.459270    310372.700000       156.185200    311449.300000       -83.476020       100.025900       135.480100       107.185900      -114.864500       126.699700        13.363150        59.980220        -0.074084
1643124152.0000    308658.100000        29.490660    310588.300000       149.190000    311691.800000       -90.430200        98.416890       128.418800       104.046000      -121.445300       123.280700         6.029331        59.981680         0.026852
1643124153.0000    308231.700000        23.014280    310153.700000       142.772400    310995.000000       -96.878680       101.489500       122.236200       108.691800      -127.647400       127.841000         0.317936        59.981740         0.007523
1643124154.0000    308245.200000        17.183160    310327.200000       136.874000    311416.800000      -102.717400       101.229200       115.291100       106.218700      -134.333100       125.835400        -7.281595        59.980610        -0.240378
1643124155.0000    308259.000000        12.156400    310039.800000       131.839000    311285.800000      -107.795400       103.623200       109.829900       109.799700      -139.308200       128.459000       -11.904810        59.988950         0.100649
1643124156.0000    308466.000000         7.864418    310287.800000       127.575400    311389.100000      -112.068800       102.117800       106.707400       108.312000      -142.734200       127.052300       -15.198390        59.988140         0.174947
1643124157.0000    308599.400000         3.968700    310429.100000       123.666800    311595.800000      -115.969800       100.874600       103.627000       105.906300      -145.997000       125.079300       -18.703240        59.991460         0.335311
1643124158.0000    308479.600000         0.608783    310310.700000       120.314900    311434.100000      -119.325100       100.718200        98.995320       107.016900      -150.843900       126.228900       -23.129690        59.990150        -0.211544
1643124159.0000    308443.100000        -1.862427    310351.400000       117.872900    311308.700000      -121.767100       101.208900        97.399580       107.204700      -152.202000       126.834300       -24.826850        59.992790         0.029899
1643124160.0000    308549.900000        -3.573303    310400.700000       116.118100    311581.500000      -123.510900        99.134830        94.140910       106.332600      -155.140800       124.294000       -27.381240        59.995780        -0.102385
1643124161.0000    308340.700000        -4.535989    310147.100000       115.162600    311319.300000      -124.475900       101.857300        93.791690       107.964300      -155.202100       126.016300       -27.975660        59.997600        -0.189017
1643124162.0000    308416.800000        -5.089723    310395.300000       114.624200    311408.800000      -124.995200        99.908950        93.812030       105.146800      -155.750700       124.322600       -28.576490        59.998470        -0.057773
1643124163.0000    307998.000000        -5.162804    309945.300000       114.511300    311160.100000      -125.094800       102.130400        93.576540       107.729600      -155.020600       125.564100       -28.080320        59.999720        -0.082159
1643124164.0000    308268.200000        -5.163544    310202.800000       114.523000    311389.800000      -125.089500       100.914500        93.231220       107.146200      -156.034200       125.753300       -28.455620        59.999230        -0.041980
1643124165.0000    308174.200000        -5.180937    310010.900000       114.508800    311212.800000      -125.120800       103.040600        92.488240       111.355400      -156.245300       128.200600       -28.274700        59.996550         0.026748
1643124166.0000    308105.700000        -5.541607    309802.700000       114.160000    311024.700000      -125.498500       103.477300        92.329890       111.500800      -156.335000       128.821700       -28.730270        59.997310         0.179903
1643124167.0000    307933.600000        -6.536543    310086.500000       113.170100    311050.200000      -126.419500       103.717100        92.371960       108.850600      -156.839200       127.950200       -30.055600        59.997900        -0.121786
1643124168.0000    308354.100000        -7.736584    310407.600000       111.954900    311490.500000      -127.641600       102.019900        90.428260       107.831200      -158.375000       125.716000       -31.510970        59.995460        -0.181897
1643124169.0000    308287.100000        -9.677342    310312.000000       110.043300    311270.400000      -129.572500       103.112500        89.126820       107.833700      -160.257900       127.463600       -33.487870        59.996660         0.284952
1643124170.0000    307828.200000       -12.222200    309855.300000       107.473100    310927.500000      -132.127900       107.986900        85.907410       111.874200      -162.699400       130.965600       -36.436080        59.990800         0.284013
1643124171.0000    307526.800000       -15.469110    309821.700000       104.289800    310482.400000      -135.300600       109.191400        84.135440       111.916000      -166.389000       134.753500       -39.957180        59.989230        -0.214416
1643124172.0000    307872.200000       -19.368140    310002.000000       100.350400    310927.100000      -139.244500       105.973200        79.650410       110.290200      -170.289600       131.358100       -43.336270        59.986170        -0.100683
1643124173.0000    307850.000000       -24.180770    309909.400000        95.593450    310619.800000      -144.041900       105.991500        75.869830       110.454300      -174.955000       132.533300       -47.531590        59.983900        -0.037651
1643124174.0000    307902.200000       -29.995450    309782.700000        89.714660    310874.100000      -149.918400       104.047800        68.667270       110.388700       179.074800       129.742500       -53.331300        59.982630         0.040235
1643124175.0000    307768.700000       -36.623050    309809.900000        83.081410    310837.300000      -156.525000       105.794400        61.893450       110.805800       173.326000       129.450100       -60.178390        59.976440        -0.218934
1643124176.0000    308114.900000       -44.088640    309959.000000        75.651080    310926.200000      -164.001000       101.303400        54.205350       107.832100       164.816500       126.869600       -67.427750        59.975510        -0.475486
1643124177.0000    308188.100000       -51.836420    310341.000000        67.828640    311493.100000      -171.738300       102.031400        45.350120       105.798300       156.681000       124.419500       -77.161610        59.978210        -0.281647
1643124178.0000    308092.200000       -59.818080    309870.300000        59.889610    311014.400000      -179.761000       102.538000        38.054000       109.442200       148.373900       128.113100       -83.756230        59.980180         0.334035
1643124179.0000    308159.400000       -68.620810    310161.400000        51.116660    311059.600000       171.488800       101.207300        29.517270       107.163200       139.701700       126.667200       -92.748730        59.977050         0.383348
