Terminal: UFC-PMU_Fortaleza_CE
Tensão base: 0.38 kV
SOC inicial: 1643124120
SOC final: 1643124179
Taxa: 1 fasores/s
Total de frames faltantes: - 

Tempo_(SOC)           VA_mod_(V)     VA_ang_(graus)     VB_mod_(V)     VB_ang_(graus)     VC_mod_(V)     VC_ang_(graus)     Frequência        Delta_Freq     Faltante
1643124120.0000       223.394700        -1.842480       222.083700      -122.174000       219.559500       117.465700        59.974870        -0.017853
1643124121.0000       223.315800       -10.869740       222.044700      -131.192700       219.536100       108.449100        59.972250        -0.074844
1643124122.0000       223.342800       -20.303670       222.069200      -140.635500       219.532300        99.008640        59.972370        -0.023575
1643124123.0000       223.370800       -30.285790       222.076200      -150.626700       219.502900        89.032370        59.971070        -0.006866
1643124124.0000       223.280500       -40.653680       222.084400      -161.015700       219.390000        78.627660        59.970820        -0.013046
1643124125.0000       223.229600       -51.263020       221.981000      -171.567300       219.499600        68.061130        59.971080         0.018768
1643124126.0000       223.326600       -62.408850       222.017700       177.259600       219.470500        56.913000        59.969500         0.016022
1643124127.0000       223.278400       -73.986500       222.032000       165.685700       219.420100        45.327240        59.965650        -0.036621
1643124128.0000       223.221100       -85.521200       221.918800       154.175000       219.431500        33.819020        59.969000        -0.008469
1643124129.0000       223.315900       -96.600020       221.974400       143.088000       219.499500        22.740500        59.969040        -0.016708
1643124130.0000       223.270200      -108.083100       221.956900       131.604300       219.458900        11.255910        59.966270        -0.072098
1643124131.0000       223.312700      -119.572000       221.981600       120.089900       219.446700        -0.242944        59.968250        -0.014420
1643124132.0000       223.309600      -131.581500       222.022900       108.078000       219.409600       -12.259920        59.965930         0.048523
1643124133.0000       223.283200      -144.764600       221.968400        94.913410       219.402700       -25.435340        59.963290         0.080795
1643124134.0000       223.239200      -158.454400       221.927700        81.224710       219.364200       -39.128280        59.961430         0.019226
1643124135.0000       223.277800      -172.518900       221.991500        67.155180       219.404100       -53.188450        59.960010        -0.027237
1643124136.0000       223.281500       172.823300       222.081600        52.502920       219.473200       -67.858340        59.961240         0.039139
1643124137.0000       223.235000       159.007400       222.004600        38.675590       219.370200       -81.673130        59.962620        -0.037308
1643124138.0000       223.288200       145.815500       222.017300        25.504990       219.459400       -94.852810        59.965510         0.020599
1643124139.0000       223.275000       132.873800       222.024200        12.574460       219.477900      -107.785000        59.967480         0.117645
1643124140.0000       223.186300       120.501000       221.950500         0.208942       219.419200      -120.168600        59.965500         0.014191
1643124141.0000       223.193100       108.352900       222.001200       -11.952830       219.394800      -132.333300        59.965860        -0.096130
1643124142.0000       223.359400        96.783940       222.084500       -23.546650       219.443300      -143.897800        59.968040        -0.025635
1643124143.0000       223.303100        85.501000       222.002000       -34.820610       219.432500      -155.162000        59.969370        -0.055618
1643124144.0000       223.276700        74.947950       222.027300       -45.367080       219.472900      -165.729700        59.970940        -0.067062
1643124145.0000       223.277900        65.049290       222.033200       -55.268830       219.471900      -175.629600        59.974060        -0.032043
1643124146.0000       223.292900        55.387700       222.006600       -64.930180       219.449400       174.718600        59.974400         0.004349
1643124147.0000       223.225200        45.923150       221.935500       -74.387080       219.419400       165.249600        59.973920         0.018082
1643124148.0000       223.253400        36.377240       221.981700       -83.929950       219.457200       155.707600        59.972140        -0.073013
1643124149.0000       223.260800        27.236450       221.937400       -93.058250       219.489200       146.586000        59.975920        -0.002518
1643124150.0000       223.285900        18.701380       221.940100      -101.637900       219.358300       138.036900        59.976440        -0.062256
1643124151.0000       223.359000        11.002720       222.074300      -109.335000       219.459200       130.330700        59.980720        -0.021057
1643124152.0000       223.337900         4.187395       222.049900      -116.130400       219.471500       123.530600        59.981960         0.001144
1643124153.0000       223.307300        -2.308193       222.081500      -122.612300       219.537800       117.025000        59.983410         0.059052
1643124154.0000       223.372500        -8.378105       222.114000      -128.685100       219.551200       110.953000        59.984820         0.038910
1643124155.0000       223.404500       -13.408460       222.101900      -133.733000       219.502700       105.917400        59.986790         0.015335
1643124156.0000       223.265700       -17.751340       222.006500      -138.068400       219.432000       101.573800        59.988790        -0.007324
1643124157.0000       223.261000       -21.463320       221.942000      -141.777500       219.420300        97.886720        59.991180         0.017853
1643124158.0000       223.317700       -25.031360       222.068500      -145.365000       219.452900        94.287710        59.991540         0.051270
1643124159.0000       223.271300       -27.613890       221.956700      -147.943300       219.389400        91.720150        59.994100        -0.054245
1643124160.0000       223.262300       -29.166510       221.946600      -149.488100       219.417900        90.164420        59.997220         0.001831
1643124161.0000       223.342000       -30.264410       222.056300      -150.575100       219.545300        89.065320        59.998560         0.036621
1643124162.0000       223.327200       -30.587320       222.060100      -150.907300       219.495800        88.734740        59.999490        -0.035019
1643124163.0000       223.247900       -30.603790       222.014300      -150.925900       219.424400        88.712580        60.001470        -0.035934
1643124164.0000       223.276800       -30.609900       222.037800      -150.933500       219.436800        88.713190        59.999630        -0.020142
1643124165.0000       223.327500       -30.881580       222.047700      -151.224600       219.408800        88.444610        59.998460        -0.018082
1643124166.0000       223.290300       -30.980470       221.991900      -151.314200       219.388500        88.354480        60.000520         0.017395
1643124167.0000       223.324900       -31.768830       222.107900      -152.088100       219.482500        87.550890        59.997430         0.080795
1643124168.0000       223.302200       -33.550680       222.093800      -153.873800       219.425400        85.761530        59.996220         0.060425
1643124169.0000       223.274600       -35.320860       222.000900      -155.633600       219.372500        84.010660        59.996110         0.070267
1643124170.0000       223.261900       -37.948710       222.033800      -158.255900       219.376500        81.386700        59.992190        -0.023575
1643124171.0000       223.308000       -41.010480       222.070300      -161.316300       219.434000        78.339190        59.990560         0.013504
1643124172.0000       223.176500       -44.778730       221.938500      -165.089200       219.296600        74.562610        59.987220        -0.062027
1643124173.0000       223.247600       -49.688380       221.990800      -170.008600       219.335200        69.649960        59.985870         0.005722
1643124174.0000       223.413600       -55.242160       222.135900      -175.570100       219.478700        64.095750        59.985800         0.042572
1643124175.0000       223.286200       -62.045860       221.977200       177.627200       219.350800        57.291650        59.979960         0.013733
1643124176.0000       223.192700       -69.563900       221.938400       170.112600       219.344000        49.757530        59.977710        -0.000916
1643124177.0000       223.338200       -77.553810       222.001900       162.131900       219.441800        41.790590        59.975610        -0.069580
1643124178.0000       223.323200       -85.438550       221.968200       154.251400       219.465000        33.921440        59.977220        -0.020828
1643124179.0000       223.192600       -93.928070       221.949200       145.771700       219.409100        25.414390        59.974990         0.030670
