Terminal: UFRGS-PMU_Porto_Alegre_RS
Tensão base: 0.22 kV
SOC inicial: 1643124120
SOC final: 1643124179
Taxa: 1 fasores/s
Total de frames faltantes: - 

Tempo_(SOC)           VA_mod_(V)     VA_ang_(graus)     VB_mod_(V)     VB_ang_(graus)     VC_mod_(V)     VC_ang_(graus)     Frequência        Delta_Freq     Faltante
1643124120.0000       124.294500      -131.404700       123.979800       108.202200       123.864900       -11.902000        59.971590        -0.095901
1643124121.0000       124.266500      -140.616600       123.817300        98.995920       123.794000       -21.046830        59.970180        -0.135040
1643124122.0000       124.260500      -150.025500       123.966800        89.563430       123.798500       -30.532150        59.975620         0.189056
1643124123.0000       124.243900      -159.913700       123.943800        79.729900       123.917400       -40.388090        59.969510         0.075989
1643124124.0000       124.434700      -169.836800       124.165000        69.790920       124.060600       -50.327920        59.969940        -0.051270
1643124125.0000       124.363400       179.306500       123.978200        58.914020       123.912800       -61.152480        59.972770         0.390244
1643124126.0000       124.326500       168.157500       124.103100        47.791930       123.986100       -72.352460        59.964160        -0.168228
1643124127.0000       124.258200       156.380300       123.931100        36.015280       123.911000       -84.090030        59.961420        -0.168915
1643124128.0000       124.375800       145.311600       124.106500        24.902250       123.936800       -95.203830        59.971660         0.069122
1643124129.0000       124.372300       133.564300       123.963100        13.174730       123.924000      -106.890300        59.971400        -0.015564
1643124130.0000       124.327800       122.339500       124.068400         1.959854       123.951200      -118.164900        59.964790        -0.105515
1643124131.0000       124.258500       110.638700       123.816900        -9.733627       123.830100      -129.791000        59.964560         0.098419
1643124132.0000       124.335700        98.425390       124.075900       -21.985280       123.924000      -142.067400        59.963910        -0.138702
1643124133.0000       124.345300        85.410650       124.001000       -34.969980       123.964500      -155.031300        59.962970        -0.113297
1643124134.0000       124.223300        71.822920       123.885400       -48.578400       123.784300      -168.628300        59.961570        -0.115585
1643124135.0000       124.326200        57.573540       123.984200       -62.751040       123.934500       177.142200        59.957860        -0.142365
1643124136.0000       124.340500        43.156150       124.113300       -77.187630       123.952100       162.671100        59.959980        -0.135498
1643124137.0000       124.301500        28.924650       123.960300       -91.401600       123.893900       148.504200        59.956300        -0.180359
1643124138.0000       124.240000        15.481170       123.993000      -104.850200       123.855400       135.017000        59.964030        -0.041428
1643124139.0000       124.170200         2.686879       123.816600      -117.665700       123.719900       122.252000        59.959290        -0.267105
1643124140.0000       124.113400        -9.945689       123.903100      -130.275900       123.751600       109.573700        59.968570         0.033417
1643124141.0000       124.148000       -21.983610       123.779900      -142.302900       123.756600        97.603580        59.962450        -0.173492
1643124142.0000       124.024200       -33.749540       123.764000      -154.067900       123.652600        85.790510        59.966080        -0.040054
1643124143.0000       124.081200       -44.910730       123.774900      -165.230000       123.715900        74.649590        59.970090         0.072784
1643124144.0000       124.141500       -55.405960       123.845600      -175.729300       123.737100        64.154690        59.970010        -0.145340
1643124145.0000       124.154900       -65.652310       123.727000       174.002700       123.673300        53.943520        59.967020        -0.199356
1643124146.0000       124.090700       -75.260850       123.833500       164.406700       123.691600        44.275610        59.974860         0.021973
1643124147.0000       124.246700       -84.746580       123.867300       154.865300       123.838000        34.822070        59.973740        -0.027695
1643124148.0000       124.208300       -94.063930       123.944400       145.534000       123.796200        25.460830        59.971110        -0.256577
1643124149.0000       124.208900      -103.184900       123.810800       136.418700       123.772900        16.390020        59.973850        -0.147629
1643124150.0000       124.307700      -111.602000       123.992400       127.990000       123.861300         7.934323        59.982680         0.016022
1643124151.0000       124.090600      -119.306300       123.728900       120.335100       123.744800         0.269533        59.980830        -0.010986
1643124152.0000       124.238700      -126.131300       123.950300       113.488500       123.855600        -6.594973        59.977100        -0.181503
1643124153.0000       124.322300      -132.531500       123.931400       107.076700       123.900800       -12.966030        59.983730        -0.122681
1643124154.0000       124.289400      -138.311400       123.998000       101.295300       123.873800       -18.781320        59.986610        -0.011902
1643124155.0000       124.266900      -143.552400       123.883900        96.046250       123.825300       -23.991430        59.987340        -0.205078
1643124156.0000       124.064100      -147.666500       123.777300        91.955760       123.686400       -28.130960        59.987740        -0.090866
1643124157.0000       124.311400      -151.560400       123.901400        88.039460       123.857600       -31.989150        59.993230        -0.023117
1643124158.0000       124.314100      -154.942500       123.982300        84.665850       123.883100       -35.393820        59.991930         0.018997
1643124159.0000       124.219700      -157.411000       123.851500        82.209740       123.826900       -37.841820        59.994930        -0.030670
1643124160.0000       124.263600      -159.175200       123.944100        80.431870       123.837400       -39.632880        59.999200        -0.027008
1643124161.0000       124.274400      -160.115300       123.890800        79.499760       123.872400       -40.546380        59.996370        -0.085144
1643124162.0000       124.179100      -160.770100       123.887700        78.849320       123.798900       -41.233560        59.997120        -0.107346
1643124163.0000       124.196000      -160.926900       123.792200        78.704930       123.820100       -41.343720        60.005040         0.050354
1643124164.0000       124.230000      -160.801100       123.930800        78.802470       123.816600       -41.270400        60.007810         0.074844
1643124165.0000       124.367400      -160.637000       123.988800        78.968830       123.935400       -41.071280        59.999110        -0.033417
1643124166.0000       124.209000      -161.112100       123.826500        78.551990       123.737500       -41.533130        59.995710        -0.127945
1643124167.0000       124.263600      -162.047800       123.859100        77.592060       123.758400       -42.469820        59.996410         0.010986
1643124168.0000       124.213100      -163.181500       123.895200        76.448460       123.717700       -43.641530        59.993180         0.154266
1643124169.0000       124.194000      -165.195800       123.857700        74.501630       123.843000       -45.616870        59.991460        -0.022659
1643124170.0000       124.272900      -167.542900       123.936800        72.118610       123.820500       -47.981150        59.990660        -0.068436
1643124171.0000       124.506500      -170.635200       124.097400        69.012570       124.021300       -51.052780        59.994560         0.006866
1643124172.0000       124.277900      -174.751800       123.880400        64.909070       123.795000       -55.182560        59.990320         0.125427
1643124173.0000       124.506800      -179.287600       124.114500        60.363550       124.029500       -59.725310        59.988520         0.028152
1643124174.0000       124.392500       174.747100       124.100400        54.352930       123.849500       -65.748090        59.984520        -0.085373
1643124175.0000       124.495900       168.157900       124.106700        47.814450       124.035300       -72.274360        59.981240        -0.086975
1643124176.0000       124.461200       160.740400       124.169100        40.396350       124.022800       -79.731640        59.980080         0.094299
1643124177.0000       124.366900       152.847100       123.886200        32.446530       123.879700       -87.564890        59.979400        -0.014877
1643124178.0000       124.406600       144.914600       124.083000        24.537770       123.999600       -95.547230        59.980580         0.290451
1643124179.0000       124.515200       136.155100       124.084600        15.772970       124.084600      -104.269700        59.976850         0.106888
