Terminal: UNICAMP-PMU_Campinas_SP
Tensão base: 0.22 kV
SOC inicial: 1643124120
SOC final: 1643124179
Taxa: 1 fasores/s
Total de frames faltantes: - 

Tempo_(SOC)           VA_mod_(V)     VA_ang_(graus)     VB_mod_(V)     VB_ang_(graus)     VC_mod_(V)     VC_ang_(graus)     Frequência        Delta_Freq     Faltante
1643124120.0000       123.145800      -113.875700       122.807900       126.222500       122.237000         6.161799        59.973320        -0.013504
1643124121.0000       123.098700      -122.947100       122.815400       117.155600       122.276100        -2.924308        59.973060        -0.087662
1643124122.0000       123.132700      -132.420100       122.755700       107.667600       122.235000       -12.393690        59.973150        -0.028152
1643124123.0000       123.209300      -142.389300       122.885600        97.699300       122.295500       -22.386380        59.972520        -0.004349
1643124124.0000       123.169400      -152.596800       122.819400        87.485000       122.273800       -32.584210        59.971520        -0.024948
1643124125.0000       123.140400      -163.294700       122.808500        76.773310       122.221200       -43.289580        59.970270         0.006866
1643124126.0000       123.058400      -174.512100       122.748900        65.554900       122.168000       -54.521130        59.969030        -0.084686
1643124127.0000       123.141300       173.922500       122.782000        53.981860       122.224300       -66.065020        59.969260         0.070267
1643124128.0000       123.130000       162.657400       122.776500        42.729890       122.188200       -77.329460        59.968930         0.019913
1643124129.0000       123.108000       151.195800       122.785900        31.245880       122.156000       -88.809490        59.968270         0.164337
1643124130.0000       123.182400       139.820200       122.860700        19.904720       122.322400      -100.166200        59.971130         0.108261
1643124131.0000       122.903200       128.197800       122.739300         8.295304       122.127600      -111.822900        59.964400        -0.125656
1643124132.0000       123.008600       115.915700       122.709800        -4.004934       122.157600      -124.086400        59.965490        -0.030212
1643124133.0000       123.076000       103.024000       122.782900       -16.900490       122.233900      -136.977600        59.964180         0.011673
1643124134.0000       123.014900        89.424510       122.732100       -30.510940       122.125500      -150.590100        59.959660         0.019913
1643124135.0000       123.169200        75.166840       122.790100       -44.778230       122.195800      -164.817600        59.960020         0.027924
1643124136.0000       123.004700        60.695010       122.818200       -59.229760       122.161600      -179.325500        59.959720        -0.071640
1643124137.0000       123.091900        46.652490       122.736900       -73.299570       122.176400       166.665800        59.960380        -0.064774
1643124138.0000       123.123900        33.200930       122.777700       -86.747140       122.181800       153.207300        59.964450        -0.002060
1643124139.0000       123.099100        20.398670       122.671900       -99.551480       122.080900       140.421000        59.966600         0.137100
1643124140.0000       123.074900         7.820941       122.691800      -112.123100       122.154100       127.846000        59.966460         0.027466
1643124141.0000       122.935900        -4.246535       122.666800      -124.179300       122.026400       115.756300        59.967390         0.042801
1643124142.0000       123.081000       -15.995660       122.643300      -135.928100       122.093100       104.051200        59.967060        -0.050583
1643124143.0000       123.112200       -27.133540       122.716700      -147.073600       122.167800        92.896180        59.969130        -0.037994
1643124144.0000       123.093300       -37.659050       122.683900      -157.596000       122.154600        82.399530        59.970860        -0.024490
1643124145.0000       123.011200       -47.791810       122.617400      -167.703700       122.119000        72.280820        59.972320        -0.004578
1643124146.0000       122.848700       -57.505230       122.556100      -177.426400       122.056500        62.549100        59.974400         0.074158
1643124147.0000       123.108700       -66.963130       122.676600       173.085700       122.144400        53.071240        59.974540        -0.010071
1643124148.0000       123.094800       -76.404430       122.620600       163.648100       122.095700        43.658150        59.974590        -0.025635
1643124149.0000       123.084100       -85.428010       122.646300       154.633500       122.103800        34.619430        59.975110         0.012360
1643124150.0000       123.138400       -93.927860       122.693700       146.132600       122.161100        26.128960        59.978090         0.046005
1643124151.0000       123.013500      -101.483100       122.742500       138.602000       122.159200        18.537450        59.980710         0.012817
1643124152.0000       123.137000      -108.429400       122.718400       131.616700       122.193900        11.610870        59.981530        -0.014191
1643124153.0000       123.059000      -114.864100       122.676400       125.203600       122.108000         5.155100        59.982580        -0.003891
1643124154.0000       123.135300      -120.753400       122.688500       119.290100       122.145700        -0.701440        59.984960        -0.039368
1643124155.0000       123.178000      -125.805100       122.722900       114.275100       122.187300        -5.747314        59.986980         0.017395
1643124156.0000       123.040200      -130.042500       122.787900       110.063400       122.206000       -10.018860        59.988290        -0.022888
1643124157.0000       123.166700      -133.900900       122.742300       106.136900       122.193100       -13.866480        59.991740         0.085831
1643124158.0000       123.163500      -137.324500       122.724600       102.750500       122.187900       -17.277750        59.992970        -0.019913
1643124159.0000       123.159200      -139.713600       122.757300       100.360800       122.192700       -19.679100        59.995080         0.075989
1643124160.0000       123.172400      -141.505100       122.746300        98.556460       122.226000       -21.456970        59.996780         0.019913
1643124161.0000       122.975500      -142.497100       122.704500        97.599760       122.144000       -22.473530        59.997810         0.006866
1643124162.0000       123.088200      -142.999400       122.671300        97.064610       122.143400       -22.967410        59.998830        -0.030899
1643124163.0000       123.000000      -143.112900       122.561800        96.956100       121.959300       -23.082040        59.999660         0.002518
1643124164.0000       123.099200      -143.093600       122.686300        96.964270       122.158000       -23.054410        59.999320        -0.028610
1643124165.0000       123.087400      -143.124000       122.698700        96.957150       122.159300       -23.078410        59.998310         0.002975
1643124166.0000       122.907200      -143.574400       122.656800        96.580620       122.084100       -23.510750        59.996960        -0.040054
1643124167.0000       123.051400      -144.465800       122.675100        95.610470       122.119600       -24.427130        59.997240        -0.019684
1643124168.0000       123.166000      -145.635700       122.757900        94.438460       122.177700       -25.606090        59.997680        -0.035477
1643124169.0000       123.092100      -147.573100       122.705600        92.480550       122.133500       -27.545940        59.994010         0.086746
1643124170.0000       123.101300      -150.106200       122.703200        89.961930       122.158200       -30.076320        59.989110        -0.123367
1643124171.0000       122.879500      -153.370600       122.663000        86.688670       122.010500       -33.380970        59.990260         0.104370
1643124172.0000       123.064500      -157.278700       122.643200        82.763400       122.046500       -37.247820        59.986850        -0.000229
1643124173.0000       123.014600      -162.059300       122.626400        78.015690       122.034200       -42.034720        59.982890        -0.119247
1643124174.0000       122.981400      -167.965700       122.573300        72.104280       122.021000       -47.930880        59.980350        -0.070724
1643124175.0000       122.991600      -174.576800       122.610200        65.499150       122.089300       -54.540000        59.979770        -0.041428
1643124176.0000       122.875800       177.919500       122.598300        58.028450       122.013400       -62.065870        59.974690        -0.193176
1643124177.0000       123.086600       170.198800       122.680100        50.270940       122.132000       -69.757740        59.978350        -0.040970
1643124178.0000       123.002100       162.185100       122.577900        42.273890       122.005400       -77.767230        59.977960         0.055389
1643124179.0000       122.971800       153.396100       122.602300        33.480240       121.999800       -86.581340        59.976140         0.059052
