Terminal: UNIPAMPA-PMU_Alegrete_RS
Tensão base: 0.38 kV
SOC inicial: 1643124120
SOC final: 1643124179
Taxa: 1 fasores/s
Total de frames faltantes: - 

Tempo_(SOC)           VA_mod_(V)     VA_ang_(graus)     VB_mod_(V)     VB_ang_(graus)     VC_mod_(V)     VC_ang_(graus)     Frequência        Delta_Freq     Faltante
1643124120.0000       214.556300      -120.682700       216.735200       118.910000       212.715900        -0.605945        59.974500        -0.009155
1643124121.0000       214.561300      -129.834300       216.798900       109.791000       212.682800        -9.760545        59.973900        -0.051270
1643124122.0000       214.551100      -139.296700       216.783800       100.330000       212.648300       -19.221630        59.973000         0.044403
1643124123.0000       214.536900      -149.127000       216.799900        90.457410       212.724300       -29.079500        59.972060         0.005493
1643124124.0000       214.560400      -159.354800       216.826600        80.281940       212.715700       -39.283970        59.971070         0.014877
1643124125.0000       214.562600      -170.073500       216.780700        69.551770       212.671700       -49.995630        59.970600         0.084457
1643124126.0000       214.563100       178.706700       216.805200        58.295170       212.736400       -61.235850        59.968910        -0.010071
1643124127.0000       214.483500       167.037200       216.773100        46.664140       212.630400       -72.896550        59.967120         0.021286
1643124128.0000       214.764900       155.944500       217.032200        35.573080       212.840100       -83.986890        59.969670         0.018997
1643124129.0000       214.716200       144.331100       216.929700        23.906400       212.789900       -95.607530        59.967000        -0.053329
1643124130.0000       214.777100       133.114000       217.037100        12.698460       212.904600      -106.826100        59.968820         0.024948
1643124131.0000       214.674100       121.437200       216.912000         1.055656       212.747300      -118.486700        59.966090         0.016251
1643124132.0000       214.726400       109.117900       216.932600       -11.299660       212.802700      -130.811000        59.964940        -0.016708
1643124133.0000       214.750700        96.200810       216.966300       -24.224800       212.840900      -143.738700        59.963840         0.003433
1643124134.0000       214.661200        82.631340       216.901800       -37.735910       212.723200      -157.284600        59.961880         0.057907
1643124135.0000       214.815600        68.416080       217.023300       -52.010200       212.887400      -171.523400        59.960290         0.018082
1643124136.0000       214.771600        53.888110       217.040100       -66.532760       212.865500       173.960200        59.959100        -0.013962
1643124137.0000       214.817000        39.863970       217.090200       -80.522770       212.852700       159.928500        59.961400         0.008698
1643124138.0000       214.868300        26.413330       217.155400       -93.967270       212.916000       146.480200        59.964730         0.020828
1643124139.0000       214.758700        13.666260       217.033500      -106.714500       212.811200       133.738200        59.963510        -0.033188
1643124140.0000       214.767400         1.066380       217.088600      -119.298000       212.856200       121.141200        59.966370         0.033646
1643124141.0000       214.834800       -10.936560       217.042600      -131.354700       212.907700       109.130500        59.967220        -0.024490
1643124142.0000       214.779000       -22.746840       217.033600      -143.121000       212.819500        97.327290        59.966830         0.022888
1643124143.0000       214.818600       -33.846360       217.128000      -154.228200       212.872400        86.214000        59.969780         0.022888
1643124144.0000       214.870200       -44.354460       217.153800      -164.728900       212.923000        75.718350        59.971780        -0.010986
1643124145.0000       214.873500       -54.556400       217.130500      -174.937100       212.894500        65.516250        59.971150        -0.035248
1643124146.0000       214.824500       -64.183740       217.143700       175.447900       212.892600        55.892780        59.974310         0.028381
1643124147.0000       214.761900       -73.727070       217.150700       165.843300       213.041800        46.340710        59.973910         0.001602
1643124148.0000       214.734200       -83.104410       217.074400       156.461900       212.959300        36.954870        59.974280        -0.029068
1643124149.0000       214.714200       -92.159120       217.055500       147.407100       212.950600        27.898810        59.975130        -0.010300
1643124150.0000       214.782000      -100.757200       217.098900       138.820100       212.957100        19.263740        59.978390         0.029297
1643124151.0000       214.643600      -108.325400       217.004500       131.256300       212.856700        11.687000        59.979650         0.029984
1643124152.0000       214.734500      -115.241100       217.106100       124.331100       213.001900         4.810956        59.981410        -0.001373
1643124153.0000       214.800300      -121.659800       217.141400       117.908900       213.038200        -1.600180        59.983090        -0.001602
1643124154.0000       214.778600      -127.467400       217.104800       112.101900       213.024800        -7.404400        59.984020        -0.012131
1643124155.0000       214.740900      -132.687700       217.060900       106.882300       212.974500       -12.623310        59.988780         0.033417
1643124156.0000       214.675200      -136.725400       217.036100       102.849300       212.953400       -16.666020        59.988810         0.018539
1643124157.0000       214.785800      -140.677700       217.121000        98.894980       213.023500       -20.608290        59.991570         0.056992
1643124158.0000       214.784400      -144.090600       217.124800        95.480120       213.017700       -24.031470        59.992310         0.018997
1643124159.0000       214.712600      -146.503400       217.068600        93.070390       212.977200       -26.446380        59.993330        -0.005951
1643124160.0000       214.754100      -148.284100       217.105900        91.287440       212.997400       -28.221210        59.997200         0.015335
1643124161.0000       214.731300      -149.172800       217.089100        90.397890       212.972800       -29.112160        59.997410        -0.036850
1643124162.0000       214.696500      -149.838200       217.022800        89.735920       212.932400       -29.768670        59.998390        -0.013275
1643124163.0000       214.659800      -149.954700       217.000300        89.621380       212.899100       -29.891480        60.001210         0.013046
1643124164.0000       214.631800      -149.936900       217.007400        89.637020       212.890100       -29.860840        60.001490         0.010757
1643124165.0000       214.720800      -149.847900       217.075800        89.723140       212.969100       -29.790190        59.999940        -0.006180
1643124166.0000       214.629800      -150.305800       216.913500        89.270970       212.851100       -30.229060        59.997090        -0.016022
1643124167.0000       214.689500      -151.282700       217.028000        88.281730       212.899400       -31.228190        59.997960         0.027924
1643124168.0000       214.635700      -152.389500       216.969700        87.172620       212.838000       -32.333280        59.994700         0.005951
1643124169.0000       214.574000      -154.423800       216.932200        85.159900       212.778300       -34.416940        59.993050         0.007782
1643124170.0000       214.541600      -156.900100       216.837100        82.679290       212.705700       -36.877260        59.991950        -0.014648
1643124171.0000       214.638200      -160.105200       216.957600        79.480000       212.825300       -40.076490        59.989790        -0.005035
1643124172.0000       214.541700      -164.090000       216.846700        75.486400       212.797500       -44.024680        59.987500        -0.009842
1643124173.0000       214.626800      -168.758000       216.988300        70.820470       212.901100       -48.705910        59.985610        -0.008240
1643124174.0000       214.522600      -174.727300       216.850100        64.832240       212.717400       -54.676250        59.982490        -0.006866
1643124175.0000       214.552000       178.684600       216.944000        58.254620       212.796400       -61.277220        59.980600        -0.017624
1643124176.0000       214.594600       171.244800       216.976300        50.817710       212.847100       -68.713040        59.977770        -0.008011
1643124177.0000       214.515400       163.426200       216.864000        43.002520       212.766900       -76.518590        59.978380         0.002289
1643124178.0000       214.501700       155.424600       216.865600        34.999420       212.766800       -84.529400        59.976990         0.045776
1643124179.0000       214.532900       146.666200       216.900700        26.236120       212.797800       -93.286070        59.975380         0.029068
