Terminal: UNIR-PMU_Porto_Velho_RO
Tensão base: 0.22 kV
SOC inicial: 1643124120
SOC final: 1643124179
Taxa: 1 fasores/s
Total de frames faltantes: - 

Tempo_(SOC)           VA_mod_(V)     VA_ang_(graus)     VB_mod_(V)     VB_ang_(graus)     VC_mod_(V)     VC_ang_(graus)     Frequência        Delta_Freq     Faltante
1643124120.0000       121.273600       -10.138440       123.379900      -129.941000       123.104700       110.041900        59.976220        -0.154495
1643124121.0000       121.555900       -19.223250       123.173000      -139.079000       123.113200       100.760600        59.976940         0.129318
1643124122.0000       121.232900       -28.472730       123.581500      -148.215800       123.108200        91.848660        59.973020         0.088806
1643124123.0000       121.505100       -38.493880       123.435000      -158.330200       123.180600        81.587350        59.969510         0.020828
1643124124.0000       121.613500       -48.592960       123.522900      -168.451100       123.337100        71.461940        59.970530        -0.094757
1643124125.0000       121.584300       -59.266970       123.431900      -179.121100       123.275100        60.772470        59.969320         0.016251
1643124126.0000       121.642300       -70.420600       123.531500       169.695400       123.315800        49.623960        59.969690        -0.053329
1643124127.0000       121.916000       -82.175770       123.364600       157.982900       123.289900        37.744110        59.965490        -0.004120
1643124128.0000       121.876800       -93.194440       123.362600       146.969500       123.238700        26.717250        59.967670        -0.013962
1643124129.0000       121.778500      -104.594100       123.307900       135.594800       123.191400        15.330890        59.967600         0.136185
1643124130.0000       121.249100      -116.108200       122.805400       124.052500       122.621700         3.786447        59.972680         0.158157
1643124131.0000       121.347600      -127.579300       122.942400       112.600100       122.749800        -7.662706        59.964970        -0.108948
1643124132.0000       121.508500      -139.745400       123.050900       100.407600       122.901200       -19.842640        59.960960        -0.138474
1643124133.0000       121.793300      -152.484200       123.281300        87.711030       123.254900       -32.549000        59.964220        -0.011215
1643124134.0000       121.748300      -166.189200       123.290000        73.961650       123.158700       -46.292290        59.964040        -0.024490
1643124135.0000       121.568400       179.432800       123.095800        59.605440       123.003600       -60.620160        59.952640         0.029984
1643124136.0000       121.781500       164.962700       123.299600        45.146420       123.215300       -75.090810        59.964070        -0.008469
1643124137.0000       121.711900       150.792100       123.232400        30.967410       123.119200       -89.268150        59.965430         0.098877
1643124138.0000       121.845800       137.659400       123.315800        17.805160       123.214600      -102.429500        59.962150         0.086975
1643124139.0000       121.946700       124.765400       123.378500         4.930038       123.280000      -115.304600        59.965730        -0.055618
1643124140.0000       121.139800       112.156300       122.621100        -7.659835       122.534200      -127.929600        59.953550        -0.452042
1643124141.0000       120.990200       100.138900       122.530200       -19.699800       122.370400      -139.955600        59.966800         0.092468
1643124142.0000       120.804200        88.233660       122.339300       -31.601830       122.158500      -151.875000        59.967950         0.068893
1643124143.0000       121.353100        77.094760       122.867300       -42.748750       122.724600      -163.012100        59.969710        -0.251770
1643124144.0000       121.621000        66.563480       123.088300       -53.256130       123.022200      -173.499000        59.969090        -0.024719
1643124145.0000       121.828400        56.818510       123.382500       -63.075280       123.140600       176.685300        59.971150         0.049667
1643124146.0000       121.780000        47.011610       123.370800       -72.861910       123.086000       166.873200        59.979800         0.199585
1643124147.0000       121.731100        37.463690       123.267200       -82.413040       123.032900       157.320000        59.967970        -0.115356
1643124148.0000       121.679000        27.832090       123.252100       -92.026030       123.029100       147.704800        59.968240        -0.081940
1643124149.0000       121.705800        19.091390       123.268700      -100.773700       122.994600       138.980600        59.975820        -0.043945
1643124150.0000       121.360300        10.715010       122.970400      -109.155200       122.686100       130.573700        59.983490         0.060425
1643124151.0000       120.714100         2.982222       122.367100      -116.906200       122.027300       122.814800        59.976490        -0.074615
1643124152.0000       121.344500        -3.683656       123.056200      -123.573300       122.840100       116.228100        59.984410         0.186310
1643124153.0000       121.131300       -10.021380       122.942100      -129.936600       122.663000       109.892100        59.989510         0.262528
1643124154.0000       120.715100       -15.955790       122.758700      -135.836100       122.369400       104.040200        59.980660         0.285187
1643124155.0000       121.095500       -20.552080       122.994300      -140.471900       122.675100        99.405960        59.974880        -0.352478
1643124156.0000       121.301900       -25.067450       123.153000      -144.986500       122.875200        94.879910        59.993360         0.043259
1643124157.0000       121.102900       -28.735180       122.963700      -148.653700       122.695400        91.207350        59.991600         0.153351
1643124158.0000       121.226400       -32.497930       123.113300      -152.408200       122.833900        87.441630        59.988560        -0.126114
1643124159.0000       121.319600       -34.797870       123.211300      -154.708700       122.919300        85.151130        59.995430         0.097733
1643124160.0000       121.476100       -36.489350       123.298400      -156.409800       123.025400        83.433820        59.996170        -0.184708
1643124161.0000       121.373400       -37.452380       123.203200      -157.354200       122.970900        82.484910        60.000170        -0.038910
1643124162.0000       121.500400       -38.035820       123.126500      -157.897600       122.880500        81.820560        60.001270         0.054474
1643124163.0000       121.665500       -38.065410       123.259000      -157.937700       122.997700        81.798140        60.002010        -0.010757
1643124164.0000       121.523300       -38.082320       123.124300      -157.966900       122.834900        81.792630        59.995430        -0.167084
1643124165.0000       121.544200       -37.935550       123.155600      -157.817100       122.876000        81.934150        59.995250        -0.105515
1643124166.0000       121.689200       -38.364910       123.305600      -158.251200       123.002800        81.501420        60.000410         0.275116
1643124167.0000       121.536400       -39.182820       123.286100      -159.081800       122.966500        80.699070        59.997520        -0.032959
1643124168.0000       121.477600       -40.566700       123.279300      -160.488700       122.971100        79.308360        59.995850        -0.185852
1643124169.0000       121.378300       -42.473430       123.213400      -162.389700       122.890600        77.430650        59.991520        -0.158386
1643124170.0000       121.317700       -45.072310       123.397300      -164.949900       122.964700        74.967150        59.993880         0.167084
1643124171.0000       121.204000       -48.220120       123.315200      -168.141200       122.849000        71.765690        59.987710        -0.052185
1643124172.0000       121.334100       -52.048520       123.368200      -172.006800       122.911100        67.899870        59.984090        -0.266190
1643124173.0000       121.307800       -56.709530       123.406300      -176.632100       122.909600        63.309550        59.981080        -0.141449
1643124174.0000       121.714900       -62.448910       123.374300       177.624600       122.982900        57.394240        59.983540         0.005035
1643124175.0000       121.659400       -69.168370       123.327300       170.904500       122.937600        50.668280        59.982180        -0.068665
1643124176.0000       121.657700       -76.568390       123.329300       163.498500       122.935900        43.248300        59.973140        -0.208054
1643124177.0000       121.714100       -84.480130       123.438000       155.587400       123.011000        35.352080        59.981290         0.122452
1643124178.0000       121.511900       -92.314680       123.201800       147.763000       122.836000        27.506760        59.981520         0.249481
1643124179.0000       121.536900      -101.001400       123.222900       139.089100       122.852100        18.830250        59.975570         0.149002
